subject_num,trial_num,information,stake,decision,reaction_time,outcome,early_late
801_CL,1,slots visible: 0,30 cents,1,2.662853807,loss,late
801_CL,2,slots visible: 2,20 cents,1,2.286652165,loss,early
801_CL,3,slots visible: 2,10 cents,1,2.074726564,loss,late
801_CL,4,slots visible: 4,50 cents,1,2.482493902,loss,early
801_CL,5,slots visible: 5,20 cents,1,2.337579902,loss,early
801_CL,6,slots visible: 4,10 cents,1,1.987974931,win,late
801_CL,7,slots visible: 1,30 cents,0,2.310931033,win,late
801_CL,8,slots visible: 1,10 cents,1,2.544500408,loss,early
801_CL,9,slots visible: 3,10 cents,1,2.202980476,loss,early
801_CL,10,slots visible: 4,30 cents,1,2.531723461,win,early
801_CL,11,slots visible: 5,40 cents,1,2.440208954,win,early
801_CL,12,slots visible: 4,20 cents,0,2.694664361,loss,late
801_CL,13,slots visible: 3,10 cents,1,2.081016361,loss,late
801_CL,14,slots visible: 5,10 cents,1,1.793175677,win,early
801_CL,15,slots visible: 2,30 cents,1,2.069505936,win,early
801_CL,16,slots visible: 5,30 cents,1,2.284321459,loss,early
801_CL,17,slots visible: 5,30 cents,1,2.21849134,loss,early
801_CL,18,slots visible: 1,30 cents,0,2.703094842,loss,late
801_CL,19,slots visible: 2,40 cents,0,2.233484921,loss,late
801_CL,20,slots visible: 2,30 cents,1,2.233914524,win,early
801_CL,21,slots visible: 3,50 cents,1,2.39418045,win,early
801_CL,22,slots visible: 5,50 cents,0,2.394556682,win,early
801_CL,23,slots visible: 2,20 cents,1,2.314944374,win,late
801_CL,24,slots visible: 3,40 cents,0,2.405400856,win,late
801_CL,25,slots visible: 0,20 cents,1,2.940113063,loss,late
801_CL,26,slots visible: 4,30 cents,1,2.374236319,win,early
801_CL,27,slots visible: 2,30 cents,0,2.068591307,loss,early
801_CL,28,slots visible: 2,10 cents,1,1.777331688,win,late
801_CL,29,slots visible: 1,40 cents,0,2.297669646,win,early
801_CL,30,slots visible: 2,30 cents,1,2.104174743,loss,early
801_CL,31,slots visible: 5,40 cents,1,2.25423782,loss,early
801_CL,32,slots visible: 5,50 cents,1,2.619072433,loss,early
801_CL,33,slots visible: 1,40 cents,0,2.335268257,win,late
801_CL,34,slots visible: 4,40 cents,1,2.213491818,win,late
801_CL,35,slots visible: 0,50 cents,0,2.384217475,loss,late
801_CL,36,slots visible: 4,20 cents,1,1.994571755,win,early
801_CL,37,slots visible: 2,40 cents,0,2.094905584,loss,late
801_CL,38,slots visible: 2,10 cents,1,1.93553464,loss,early
801_CL,39,slots visible: 3,20 cents,1,2.307686578,win,early
801_CL,40,slots visible: 1,30 cents,0,2.094125554,loss,early
801_CL,41,slots visible: 3,50 cents,0,2.554568951,win,late
801_CL,42,slots visible: 4,10 cents,1,1.963030692,win,late
801_CL,43,slots visible: 4,30 cents,1,2.047404114,win,early
801_CL,44,slots visible: 0,10 cents,0,2.092047625,win,late
801_CL,45,slots visible: 5,40 cents,1,2.466278665,win,early
801_CL,46,slots visible: 3,50 cents,0,2.380773907,loss,early
801_CL,47,slots visible: 0,10 cents,1,2.305309833,win,late
801_CL,48,slots visible: 1,30 cents,0,2.299520604,win,late
801_CL,49,slots visible: 0,50 cents,0,2.383872326,win,late
801_CL,50,slots visible: 5,40 cents,1,2.324341388,loss,early
801_CL,51,slots visible: 1,30 cents,1,2.244708553,loss,early
801_CL,52,slots visible: 4,40 cents,1,2.565208148,win,late
801_CL,53,slots visible: 3,40 cents,0,2.331974244,loss,late
801_CL,54,slots visible: 4,10 cents,1,1.863908548,loss,early
801_CL,55,slots visible: 2,30 cents,1,2.576781327,win,late
801_CL,56,slots visible: 3,10 cents,1,2.038780385,win,early
801_CL,57,slots visible: 2,50 cents,0,2.113256812,loss,early
801_CL,58,slots visible: 1,20 cents,1,2.315532036,loss,late
801_CL,59,slots visible: 1,10 cents,1,2.412049877,loss,early
801_CL,60,slots visible: 1,10 cents,1,2.383799602,win,late
801_CL,61,slots visible: 2,20 cents,1,2.64761654,loss,late
801_CL,62,slots visible: 2,50 cents,0,2.205704129,win,early
801_CL,63,slots visible: 5,10 cents,1,2.086190657,loss,early
801_CL,64,slots visible: 4,20 cents,1,2.149666024,loss,late
801_CL,65,slots visible: 4,20 cents,1,2.198977692,win,early
801_CL,66,slots visible: 1,20 cents,0,2.037427356,win,early
801_CL,67,slots visible: 1,40 cents,0,2.243820023,loss,late
801_CL,68,slots visible: 1,20 cents,0,2.148259038,loss,early
801_CL,69,slots visible: 3,20 cents,1,2.318900533,win,late
801_CL,70,slots visible: 1,50 cents,0,2.22906485,loss,late
801_CL,71,slots visible: 0,50 cents,0,2.213375107,loss,late
801_CL,72,slots visible: 5,30 cents,1,2.1478787,win,early
801_CL,73,slots visible: 3,10 cents,1,2.122432133,win,early
801_CL,74,slots visible: 3,20 cents,1,2.184594059,win,late
801_CL,75,slots visible: 3,30 cents,0,2.13293849,win,early
801_CL,76,slots visible: 2,10 cents,0,2.667560378,win,late
801_CL,77,slots visible: 2,50 cents,0,2.398260651,win,early
801_CL,78,slots visible: 2,20 cents,1,2.660426624,loss,late
801_CL,79,slots visible: 1,40 cents,0,2.256644476,loss,early
801_CL,80,slots visible: 4,30 cents,1,2.06115903,loss,late
801_CL,81,slots visible: 4,10 cents,1,1.971570259,win,early
801_CL,82,slots visible: 5,10 cents,1,2.08776274,win,early
801_CL,83,slots visible: 2,40 cents,0,2.222348089,win,early
801_CL,84,slots visible: 0,50 cents,0,2.392709243,loss,late
801_CL,85,slots visible: 0,40 cents,0,2.281468192,loss,late
801_CL,86,slots visible: 3,30 cents,1,2.337732096,loss,late
801_CL,87,slots visible: 5,20 cents,1,2.381964479,loss,early
801_CL,88,slots visible: 5,20 cents,1,1.976256596,win,early
801_CL,89,slots visible: 0,40 cents,0,2.294899367,win,late
801_CL,90,slots visible: 3,30 cents,1,2.635585899,loss,early
801_CL,91,slots visible: 1,10 cents,1,2.139961397,win,late
801_CL,92,slots visible: 0,40 cents,0,2.288196976,win,late
801_CL,93,slots visible: 4,50 cents,1,2.414759161,win,late
801_CL,94,slots visible: 4,40 cents,0,2.15497052,loss,early
801_CL,95,slots visible: 0,30 cents,0,2.255465047,win,late
801_CL,96,slots visible: 1,10 cents,1,2.113659437,loss,early
801_CL,97,slots visible: 4,40 cents,1,2.196559306,win,late
801_CL,98,slots visible: 0,50 cents,0,2.238829005,win,late
801_CL,99,slots visible: 3,30 cents,0,2.399516323,loss,late
801_CL,100,slots visible: 5,20 cents,1,1.925615652,loss,early
801_CL,101,slots visible: 5,30 cents,0,2.153975249,win,early
801_CL,102,slots visible: 0,30 cents,0,2.166417605,loss,late
801_CL,103,slots visible: 5,20 cents,1,2.098907782,win,early
801_CL,104,slots visible: 0,40 cents,0,1.975472167,win,late
801_CL,105,slots visible: 3,10 cents,1,2.017622223,loss,early
801_CL,106,slots visible: 3,20 cents,1,2.022102116,loss,late
801_CL,107,slots visible: 1,40 cents,0,2.084658749,win,late
801_CL,108,slots visible: 0,20 cents,1,2.322777223,win,late
801_CL,109,slots visible: 0,30 cents,0,2.259256403,win,late
801_CL,110,slots visible: 3,50 cents,0,2.575864939,loss,early
801_CL,111,slots visible: 2,40 cents,0,2.316061342,loss,late
801_CL,112,slots visible: 0,20 cents,1,2.156559025,win,late
801_CL,113,slots visible: 2,40 cents,0,2.290916523,win,early
801_CL,114,slots visible: 1,20 cents,0,2.209513373,win,early
801_CL,115,slots visible: 3,20 cents,1,2.351746827,loss,late
801_CL,116,slots visible: 1,50 cents,0,2.690150452,win,late
801_CL,117,slots visible: 1,40 cents,0,2.256480846,loss,early
801_CL,118,slots visible: 5,50 cents,1,2.485694077,win,early
801_CL,119,slots visible: 2,40 cents,0,2.060844379,win,late
801_CL,120,slots visible: 4,20 cents,1,2.627577397,loss,early
801_CL,121,slots visible: 3,30 cents,1,2.23282952,win,early
801_CL,122,slots visible: 3,20 cents,1,2.249137422,loss,late
801_CL,123,slots visible: 0,20 cents,1,2.303848597,loss,late
801_CL,124,slots visible: 4,50 cents,0,2.291527351,win,late
801_CL,125,slots visible: 2,10 cents,1,2.082392557,win,early
801_CL,126,slots visible: 3,40 cents,1,2.690778288,loss,early
801_CL,127,slots visible: 4,20 cents,1,2.231370923,win,early
801_CL,128,slots visible: 4,30 cents,0,2.337866401,loss,late
801_CL,129,slots visible: 5,40 cents,0,2.685927148,loss,early
801_CL,130,slots visible: 4,50 cents,1,3.019056774,loss,early
801_CL,131,slots visible: 4,10 cents,1,2.097152422,loss,late
801_CL,132,slots visible: 0,20 cents,1,2.189413529,win,late
801_CL,133,slots visible: 3,40 cents,0,2.127979435,loss,late
801_CL,134,slots visible: 5,30 cents,1,2.253029947,win,early
801_CL,135,slots visible: 3,50 cents,0,2.458985973,loss,early
801_CL,136,slots visible: 2,50 cents,0,2.245124374,loss,late
801_CL,137,slots visible: 5,10 cents,1,2.043611878,win,early
801_CL,138,slots visible: 5,30 cents,1,2.441818572,loss,early
801_CL,139,slots visible: 3,40 cents,0,2.455937405,win,late
801_CL,140,slots visible: 1,30 cents,0,2.406790541,win,late
801_CL,141,slots visible: 2,50 cents,0,2.667888518,win,early
801_CL,142,slots visible: 4,10 cents,1,2.053924987,loss,early
801_CL,143,slots visible: 5,20 cents,1,2.207848038,win,early
801_CL,144,slots visible: 5,50 cents,1,2.574684044,win,early
801_CL,145,slots visible: 0,40 cents,0,2.133096842,loss,late
801_CL,146,slots visible: 0,20 cents,1,2.089531589,loss,late
801_CL,147,slots visible: 4,40 cents,0,2.349831942,loss,late
801_CL,148,slots visible: 5,40 cents,0,2.304358255,win,early
801_CL,149,slots visible: 0,40 cents,0,2.356883294,loss,late
801_CL,150,slots visible: 2,20 cents,1,2.684922786,win,late
801_CL,151,slots visible: 5,10 cents,1,2.091580194,loss,early
801_CL,152,slots visible: 2,20 cents,1,2.466239957,win,early
801_CL,153,slots visible: 3,30 cents,0,2.34226096,win,early
801_CL,154,slots visible: 2,10 cents,0,2.345154988,loss,late
801_CL,155,slots visible: 0,30 cents,0,3.179469908,loss,late
801_CL,156,slots visible: 5,50 cents,1,2.863753421,loss,early
801_CL,157,slots visible: 0,10 cents,1,2.330231786,loss,late
801_CL,158,slots visible: 3,40 cents,1,2.384647371,win,late
801_CL,159,slots visible: 4,50 cents,0,3.077025893,loss,early
801_CL,160,slots visible: 0,10 cents,1,2.327628363,loss,late
801_CL,161,slots visible: 4,40 cents,1,2.408037416,loss,late
801_CL,162,slots visible: 0,30 cents,0,2.126469814,win,late
801_CL,163,slots visible: 3,50 cents,0,2.228809141,win,early
801_CL,164,slots visible: 1,50 cents,0,2.205865121,loss,early
801_CL,165,slots visible: 1,20 cents,1,2.3236637,win,late
801_CL,166,slots visible: 1,10 cents,1,2.249899857,win,early
801_CL,167,slots visible: 5,10 cents,1,2.150467461,loss,early
801_CL,168,slots visible: 5,50 cents,0,2.410093058,loss,early
801_CL,169,slots visible: 0,10 cents,1,2.161449753,loss,late
801_CL,170,slots visible: 2,50 cents,0,2.343345964,loss,early
801_CL,171,slots visible: 4,30 cents,1,2.090237428,loss,early
801_CL,172,slots visible: 2,30 cents,0,2.102315868,loss,late
801_CL,173,slots visible: 0,10 cents,1,2.034989616,win,late
801_CL,174,slots visible: 0,50 cents,0,2.407326591,win,late
801_CL,175,slots visible: 1,20 cents,1,2.413971507,loss,late
801_CL,176,slots visible: 1,50 cents,0,2.665009445,win,early
801_CL,177,slots visible: 3,10 cents,1,2.20449567,win,late
801_CL,178,slots visible: 1,50 cents,0,2.331112985,win,late
801_CL,179,slots visible: 4,50 cents,1,2.391389644,win,late
801_CL,180,slots visible: 1,50 cents,0,2.263838345,loss,early
802_SM,1,slots visible: 0,20 cents,1,2.859752983,loss,late
802_SM,2,slots visible: 2,40 cents,1,1.970459743,win,early
802_SM,3,slots visible: 5,30 cents,1,2.047907907,win,early
802_SM,4,slots visible: 1,30 cents,0,2.11964338,win,early
802_SM,5,slots visible: 0,40 cents,1,2.382021661,loss,late
802_SM,6,slots visible: 1,50 cents,1,2.224936263,win,late
802_SM,7,slots visible: 2,50 cents,0,2.108905947,loss,late
802_SM,8,slots visible: 0,20 cents,1,1.987455595,loss,late
802_SM,9,slots visible: 5,10 cents,1,2.327838619,loss,early
802_SM,10,slots visible: 0,20 cents,1,1.928258956,win,late
802_SM,11,slots visible: 0,50 cents,0,2.108657569,loss,late
802_SM,12,slots visible: 5,40 cents,1,2.019082579,loss,early
802_SM,13,slots visible: 3,30 cents,0,2.349460694,win,late
802_SM,14,slots visible: 5,10 cents,1,2.607946451,win,early
802_SM,15,slots visible: 0,20 cents,1,2.164243785,win,late
802_SM,16,slots visible: 0,10 cents,0,2.426642007,loss,late
802_SM,17,slots visible: 5,20 cents,1,1.974840519,loss,early
802_SM,18,slots visible: 3,40 cents,1,2.165502096,win,early
802_SM,19,slots visible: 4,40 cents,0,2.079932824,win,late
802_SM,20,slots visible: 3,30 cents,1,2.062429658,loss,late
802_SM,21,slots visible: 2,10 cents,1,2.254931049,win,early
802_SM,22,slots visible: 2,30 cents,1,2.219271077,win,late
802_SM,23,slots visible: 0,40 cents,0,2.495672007,loss,late
802_SM,24,slots visible: 3,50 cents,1,2.028004244,win,early
802_SM,25,slots visible: 3,40 cents,1,2.172452279,win,late
802_SM,26,slots visible: 4,20 cents,0,2.192840968,loss,early
802_SM,27,slots visible: 4,10 cents,1,1.917097198,loss,late
802_SM,28,slots visible: 3,40 cents,1,1.959717617,loss,early
802_SM,29,slots visible: 5,10 cents,1,1.707977946,win,early
802_SM,30,slots visible: 2,30 cents,1,2.420481824,loss,early
802_SM,31,slots visible: 5,40 cents,1,1.936931656,win,early
802_SM,32,slots visible: 1,30 cents,0,1.899180265,loss,early
802_SM,33,slots visible: 5,30 cents,1,2.19381366,win,early
802_SM,34,slots visible: 4,10 cents,1,2.100238818,win,early
802_SM,35,slots visible: 4,20 cents,1,2.010553862,loss,late
802_SM,36,slots visible: 2,10 cents,0,2.237156926,win,late
802_SM,37,slots visible: 4,40 cents,1,2.103429316,loss,early
802_SM,38,slots visible: 3,10 cents,1,1.857943665,win,late
802_SM,39,slots visible: 3,30 cents,1,2.576323573,loss,early
802_SM,40,slots visible: 2,50 cents,1,1.878598034,win,early
802_SM,41,slots visible: 4,20 cents,0,2.391015171,win,late
802_SM,42,slots visible: 4,50 cents,0,2.785555138,loss,early
802_SM,43,slots visible: 1,20 cents,1,2.011812467,loss,late
802_SM,44,slots visible: 1,30 cents,1,2.016352768,loss,early
802_SM,45,slots visible: 4,40 cents,1,1.973584847,win,late
802_SM,46,slots visible: 0,20 cents,0,2.129293756,loss,late
802_SM,47,slots visible: 2,40 cents,0,2.479608085,win,late
802_SM,48,slots visible: 5,40 cents,1,2.079848662,win,early
802_SM,49,slots visible: 4,30 cents,0,2.174310275,win,early
802_SM,50,slots visible: 5,40 cents,0,1.876930647,loss,early
802_SM,51,slots visible: 5,10 cents,1,1.783381611,win,early
802_SM,52,slots visible: 3,30 cents,0,2.171895115,win,late
802_SM,53,slots visible: 5,20 cents,1,1.89011843,win,early
802_SM,54,slots visible: 2,10 cents,1,1.920653665,loss,early
802_SM,55,slots visible: 2,50 cents,0,1.995048277,win,late
802_SM,56,slots visible: 3,40 cents,0,1.809396192,loss,early
802_SM,57,slots visible: 0,50 cents,0,2.473720326,win,late
802_SM,58,slots visible: 1,20 cents,1,1.908307787,loss,late
802_SM,59,slots visible: 5,20 cents,1,1.92869677,win,early
802_SM,60,slots visible: 2,50 cents,0,2.816966001,loss,early
802_SM,61,slots visible: 5,50 cents,1,1.975882709,loss,early
802_SM,62,slots visible: 1,40 cents,1,2.132414462,win,early
802_SM,63,slots visible: 3,40 cents,0,2.110643712,loss,late
802_SM,64,slots visible: 2,40 cents,1,1.955356195,loss,late
802_SM,65,slots visible: 3,10 cents,1,1.810885287,loss,early
802_SM,66,slots visible: 4,20 cents,1,1.918000684,win,late
802_SM,67,slots visible: 3,10 cents,1,1.800571005,loss,late
802_SM,68,slots visible: 1,30 cents,1,1.701198724,win,late
802_SM,69,slots visible: 1,40 cents,0,1.913318452,loss,early
802_SM,70,slots visible: 0,30 cents,1,2.451669235,win,late
802_SM,71,slots visible: 4,30 cents,0,2.449766079,loss,early
802_SM,72,slots visible: 1,20 cents,1,2.016489713,win,late
802_SM,73,slots visible: 4,50 cents,0,2.136943034,loss,late
802_SM,74,slots visible: 5,30 cents,1,1.887270148,loss,early
802_SM,75,slots visible: 2,30 cents,1,2.267809166,win,early
802_SM,76,slots visible: 0,50 cents,0,2.110282435,win,late
802_SM,77,slots visible: 1,10 cents,1,1.834661241,loss,early
802_SM,78,slots visible: 4,10 cents,1,1.652774707,loss,early
802_SM,79,slots visible: 5,30 cents,0,2.025435131,loss,early
802_SM,80,slots visible: 2,20 cents,1,2.005861367,loss,late
802_SM,81,slots visible: 3,20 cents,1,1.946417522,win,early
802_SM,82,slots visible: 1,10 cents,1,2.414581455,loss,late
802_SM,83,slots visible: 4,10 cents,1,1.780962639,win,late
802_SM,84,slots visible: 5,10 cents,0,1.983168657,loss,early
802_SM,85,slots visible: 0,20 cents,1,1.907939765,win,late
802_SM,86,slots visible: 5,10 cents,0,1.848384488,loss,early
802_SM,87,slots visible: 5,40 cents,1,1.932729172,loss,early
802_SM,88,slots visible: 0,50 cents,1,2.173119116,loss,late
802_SM,89,slots visible: 1,50 cents,1,1.961604645,win,early
802_SM,90,slots visible: 0,50 cents,0,2.331787154,win,late
802_SM,91,slots visible: 2,20 cents,1,2.002289945,win,early
802_SM,92,slots visible: 1,40 cents,0,2.358918409,loss,late
802_SM,93,slots visible: 4,40 cents,1,1.935111782,win,early
802_SM,94,slots visible: 2,30 cents,0,2.083645883,loss,late
802_SM,95,slots visible: 3,10 cents,1,1.898137195,win,late
802_SM,96,slots visible: 4,40 cents,0,2.072385009,loss,late
802_SM,97,slots visible: 0,30 cents,1,2.179018898,loss,late
802_SM,98,slots visible: 2,40 cents,0,1.77518602,loss,early
802_SM,99,slots visible: 2,50 cents,1,1.825709079,win,late
802_SM,100,slots visible: 0,30 cents,0,2.01215175,win,late
802_SM,101,slots visible: 0,40 cents,0,1.846636752,win,late
802_SM,102,slots visible: 0,50 cents,1,2.21100628,loss,late
802_SM,103,slots visible: 2,10 cents,1,1.787359763,loss,early
802_SM,104,slots visible: 0,30 cents,1,2.005932332,loss,late
802_SM,105,slots visible: 3,50 cents,1,1.996076685,win,early
802_SM,106,slots visible: 3,50 cents,1,2.15652061,loss,late
802_SM,107,slots visible: 2,30 cents,1,1.916806007,loss,late
802_SM,108,slots visible: 1,10 cents,1,1.725527151,win,early
802_SM,109,slots visible: 0,10 cents,0,1.925754063,loss,late
802_SM,110,slots visible: 2,50 cents,0,2.266182247,loss,early
802_SM,111,slots visible: 5,40 cents,1,1.996698656,win,early
802_SM,112,slots visible: 2,40 cents,0,1.947026591,win,late
802_SM,113,slots visible: 1,50 cents,0,1.961569162,loss,late
802_SM,114,slots visible: 3,20 cents,1,2.165930232,loss,early
802_SM,115,slots visible: 5,50 cents,1,1.836256197,win,early
802_SM,116,slots visible: 1,10 cents,1,1.798693655,loss,early
802_SM,117,slots visible: 1,40 cents,0,2.465103635,loss,late
802_SM,118,slots visible: 0,30 cents,1,1.765628015,win,late
802_SM,119,slots visible: 1,50 cents,0,2.342018447,loss,early
802_SM,120,slots visible: 2,20 cents,1,2.196721177,loss,early
802_SM,121,slots visible: 0,10 cents,1,1.945295276,win,late
802_SM,122,slots visible: 3,40 cents,0,2.019784313,win,late
802_SM,123,slots visible: 5,30 cents,1,1.928248106,loss,early
802_SM,124,slots visible: 4,50 cents,0,1.902608584,win,early
802_SM,125,slots visible: 3,20 cents,1,1.844801629,loss,early
802_SM,126,slots visible: 1,50 cents,1,2.108787183,win,late
802_SM,127,slots visible: 3,10 cents,0,1.956125375,loss,late
802_SM,128,slots visible: 2,30 cents,1,1.95036635,win,late
802_SM,129,slots visible: 2,10 cents,1,1.91468585,loss,early
802_SM,130,slots visible: 0,10 cents,1,1.653161496,win,late
802_SM,131,slots visible: 3,20 cents,0,2.157576582,loss,early
802_SM,132,slots visible: 5,20 cents,1,1.885649387,win,early
802_SM,133,slots visible: 3,50 cents,0,2.200406964,win,late
802_SM,134,slots visible: 2,20 cents,1,1.841011153,win,late
802_SM,135,slots visible: 3,20 cents,0,2.05311358,win,early
802_SM,136,slots visible: 4,30 cents,0,1.853660832,win,late
802_SM,137,slots visible: 0,40 cents,1,1.625964261,loss,late
802_SM,138,slots visible: 5,50 cents,1,1.856427006,loss,early
802_SM,139,slots visible: 4,10 cents,1,1.740790516,loss,early
802_SM,140,slots visible: 1,30 cents,1,1.632988634,loss,early
802_SM,141,slots visible: 0,10 cents,1,1.327524262,win,late
802_SM,142,slots visible: 4,20 cents,1,1.961966508,loss,late
802_SM,143,slots visible: 1,30 cents,1,2.082520998,win,late
802_SM,144,slots visible: 5,50 cents,0,2.248676149,win,early
802_SM,145,slots visible: 1,20 cents,1,2.047429039,win,early
802_SM,146,slots visible: 5,50 cents,0,2.195538523,loss,early
802_SM,147,slots visible: 3,10 cents,1,1.804160022,win,late
802_SM,148,slots visible: 4,30 cents,0,1.984407908,win,early
802_SM,149,slots visible: 0,30 cents,1,2.550143015,loss,late
802_SM,150,slots visible: 5,20 cents,1,1.767387187,loss,early
802_SM,151,slots visible: 0,40 cents,1,2.0516412,win,late
802_SM,152,slots visible: 2,10 cents,1,2.024174767,win,early
802_SM,153,slots visible: 2,40 cents,0,2.058290222,loss,late
802_SM,154,slots visible: 1,20 cents,1,2.076959913,loss,late
802_SM,155,slots visible: 3,30 cents,1,3.109623809,loss,early
802_SM,156,slots visible: 4,30 cents,1,2.159270361,loss,late
802_SM,157,slots visible: 1,40 cents,1,1.824189487,win,early
802_SM,158,slots visible: 5,50 cents,0,2.240597561,win,early
802_SM,159,slots visible: 1,40 cents,0,1.96918325,win,late
802_SM,160,slots visible: 3,50 cents,0,1.797477278,loss,late
802_SM,161,slots visible: 4,50 cents,0,1.526635673,win,early
802_SM,162,slots visible: 1,10 cents,1,1.706453662,win,early
802_SM,163,slots visible: 5,20 cents,1,2.108760497,loss,early
802_SM,164,slots visible: 2,20 cents,1,1.787230736,loss,early
802_SM,165,slots visible: 2,20 cents,1,1.763297602,win,late
802_SM,166,slots visible: 3,20 cents,0,1.972041502,win,early
802_SM,167,slots visible: 1,10 cents,1,1.640401557,win,late
802_SM,168,slots visible: 4,50 cents,0,1.978859725,loss,late
802_SM,169,slots visible: 0,10 cents,1,1.67130628,loss,late
802_SM,170,slots visible: 4,30 cents,1,2.013511817,loss,early
802_SM,171,slots visible: 4,10 cents,1,1.636030751,win,late
802_SM,172,slots visible: 4,20 cents,0,2.278244851,win,early
802_SM,173,slots visible: 4,50 cents,1,1.876876104,win,late
802_SM,174,slots visible: 1,20 cents,0,1.771158602,win,early
802_SM,175,slots visible: 3,50 cents,0,1.409610085,loss,late
802_SM,176,slots visible: 0,40 cents,1,1.980164956,win,late
802_SM,177,slots visible: 4,40 cents,0,2.128514606,loss,early
802_SM,178,slots visible: 1,50 cents,1,1.937009952,loss,late
802_SM,179,slots visible: 5,30 cents,1,1.789069671,win,early
802_SM,180,slots visible: 3,30 cents,0,2.101766034,win,early
804_XP,1,slots visible: 3,50 cents,1,2.61441098,loss,late
804_XP,2,slots visible: 4,40 cents,1,2.337102098,loss,late
804_XP,3,slots visible: 5,20 cents,1,2.547786364,win,early
804_XP,4,slots visible: 2,20 cents,0,2.436179671,win,early
804_XP,5,slots visible: 4,40 cents,1,2.14826916,loss,late
804_XP,6,slots visible: 4,20 cents,1,2.360787957,win,late
804_XP,7,slots visible: 2,10 cents,0,2.357239711,win,early
804_XP,8,slots visible: 2,10 cents,1,2.773848316,win,late
804_XP,9,slots visible: 1,40 cents,0,3.114052636,win,early
804_XP,10,slots visible: 3,30 cents,1,2.727991787,loss,late
804_XP,11,slots visible: 1,30 cents,1,3.095342239,loss,late
804_XP,12,slots visible: 4,30 cents,1,2.523686152,loss,late
804_XP,13,slots visible: 3,10 cents,1,3.097939202,loss,early
804_XP,14,slots visible: 0,20 cents,1,3.822551652,win,late
804_XP,15,slots visible: 2,50 cents,1,4.022731351,loss,early
804_XP,16,slots visible: 3,20 cents,0,4.331266847,win,late
804_XP,17,slots visible: 1,40 cents,1,2.59400974,loss,late
804_XP,18,slots visible: 1,50 cents,1,3.706289427,loss,late
804_XP,19,slots visible: 4,20 cents,1,3.788830123,loss,late
804_XP,20,slots visible: 3,40 cents,0,1.389914068,loss,early
804_XP,21,slots visible: 2,40 cents,0,2.531785829,win,late
804_XP,22,slots visible: 5,50 cents,1,2.440109427,win,early
804_XP,23,slots visible: 2,10 cents,0,1.904510846,loss,late
804_XP,24,slots visible: 1,30 cents,0,2.250952748,loss,late
804_XP,25,slots visible: 3,10 cents,1,2.151129163,loss,early
804_XP,26,slots visible: 0,50 cents,1,4.01775589,loss,late
804_XP,27,slots visible: 3,50 cents,1,1.7902764,win,early
804_XP,28,slots visible: 3,20 cents,1,2.79448327,win,late
804_XP,29,slots visible: 0,10 cents,1,2.516377939,win,late
804_XP,30,slots visible: 0,30 cents,0,1.95970278,win,late
804_XP,31,slots visible: 2,30 cents,1,3.437752336,loss,early
804_XP,32,slots visible: 3,20 cents,1,2.174242318,loss,early
804_XP,33,slots visible: 3,10 cents,1,1.801093857,win,late
804_XP,34,slots visible: 0,50 cents,0,2.052319614,win,late
804_XP,35,slots visible: 0,10 cents,1,2.273842451,win,late
804_XP,36,slots visible: 0,30 cents,0,2.371115404,loss,late
804_XP,37,slots visible: 5,10 cents,1,4.914566457,win,early
804_XP,38,slots visible: 2,30 cents,0,2.420153918,win,late
804_XP,39,slots visible: 1,50 cents,0,2.001430735,win,late
804_XP,40,slots visible: 4,20 cents,1,2.238051503,loss,early
804_XP,41,slots visible: 1,10 cents,1,2.014111167,win,late
804_XP,42,slots visible: 1,10 cents,0,1.730763817,win,early
804_XP,43,slots visible: 0,40 cents,1,4.375100289,win,late
804_XP,44,slots visible: 0,30 cents,0,3.371741186,win,late
804_XP,45,slots visible: 2,10 cents,0,1.890216988,win,early
804_XP,46,slots visible: 2,10 cents,1,2.476666033,loss,late
804_XP,47,slots visible: 0,30 cents,0,2.060960325,win,late
804_XP,48,slots visible: 2,30 cents,1,3.353517866,loss,late
804_XP,49,slots visible: 0,30 cents,1,2.056186322,loss,late
804_XP,50,slots visible: 5,10 cents,1,2.128403383,loss,early
804_XP,51,slots visible: 5,30 cents,1,2.606954679,win,early
804_XP,52,slots visible: 5,10 cents,1,2.662963002,loss,early
804_XP,53,slots visible: 4,10 cents,1,2.809543373,loss,early
804_XP,54,slots visible: 0,40 cents,1,3.359774214,win,late
804_XP,55,slots visible: 2,50 cents,0,2.336428811,loss,early
804_XP,56,slots visible: 5,30 cents,0,1.997037068,loss,early
804_XP,57,slots visible: 2,40 cents,1,2.403070435,win,early
804_XP,58,slots visible: 1,30 cents,1,3.635699867,win,early
804_XP,59,slots visible: 3,40 cents,0,2.155732792,win,late
804_XP,60,slots visible: 0,10 cents,1,3.214842165,loss,late
804_XP,61,slots visible: 5,30 cents,0,2.311708976,win,early
804_XP,62,slots visible: 1,30 cents,1,3.312257048,win,early
804_XP,63,slots visible: 2,40 cents,99,5,loss,early
804_XP,64,slots visible: 5,40 cents,1,2.228679149,win,early
804_XP,65,slots visible: 5,10 cents,1,2.54920185,win,early
804_XP,66,slots visible: 5,50 cents,0,3.663391724,win,early
804_XP,67,slots visible: 2,20 cents,1,3.289792255,win,late
804_XP,68,slots visible: 3,50 cents,1,3.750333711,win,late
804_XP,69,slots visible: 1,10 cents,0,2.359268369,loss,late
804_XP,70,slots visible: 3,30 cents,1,2.485497353,win,early
804_XP,71,slots visible: 0,10 cents,0,3.339949199,loss,late
804_XP,72,slots visible: 2,50 cents,1,3.142368222,win,early
804_XP,73,slots visible: 0,40 cents,1,3.506892687,win,late
804_XP,74,slots visible: 3,40 cents,1,4.013296537,win,early
804_XP,75,slots visible: 3,50 cents,0,4.185869127,win,early
804_XP,76,slots visible: 5,20 cents,1,2.23621228,loss,early
804_XP,77,slots visible: 0,20 cents,1,3.036615548,win,late
804_XP,78,slots visible: 3,40 cents,1,3.821167543,win,late
804_XP,79,slots visible: 1,20 cents,1,3.143687231,win,late
804_XP,80,slots visible: 2,20 cents,0,2.089854188,loss,late
804_XP,81,slots visible: 2,30 cents,0,1.966594001,win,late
804_XP,82,slots visible: 4,50 cents,1,2.746873732,win,late
804_XP,83,slots visible: 0,50 cents,0,2.962761602,win,late
804_XP,84,slots visible: 2,20 cents,1,3.672916857,win,early
804_XP,85,slots visible: 2,30 cents,1,2.506148728,win,early
804_XP,86,slots visible: 5,50 cents,0,2.364945269,loss,early
804_XP,87,slots visible: 1,20 cents,0,2.410346098,win,late
804_XP,88,slots visible: 5,20 cents,1,2.28954681,win,early
804_XP,89,slots visible: 3,20 cents,0,1.958079091,loss,early
804_XP,90,slots visible: 4,10 cents,1,2.186338023,loss,late
804_XP,91,slots visible: 5,10 cents,1,2.114852311,win,early
804_XP,92,slots visible: 0,50 cents,0,3.5572376,win,late
804_XP,93,slots visible: 5,30 cents,1,2.055830618,loss,early
804_XP,94,slots visible: 1,50 cents,1,2.670143654,win,late
804_XP,95,slots visible: 1,10 cents,0,2.02271405,win,early
804_XP,96,slots visible: 1,30 cents,0,3.243006731,win,early
804_XP,97,slots visible: 4,20 cents,1,3.39522412,win,early
804_XP,98,slots visible: 1,30 cents,0,2.187314524,loss,late
804_XP,99,slots visible: 3,40 cents,1,0.878363795,loss,early
804_XP,100,slots visible: 4,40 cents,1,1.886701293,win,early
804_XP,101,slots visible: 3,10 cents,0,2.483197151,win,early
804_XP,102,slots visible: 5,50 cents,1,3.112781719,win,early
804_XP,103,slots visible: 4,50 cents,1,2.548253501,loss,early
804_XP,104,slots visible: 5,20 cents,1,2.060948596,win,early
804_XP,105,slots visible: 0,20 cents,1,4.466720682,loss,late
804_XP,106,slots visible: 4,50 cents,1,2.487356809,win,early
804_XP,107,slots visible: 3,30 cents,0,2.866205336,win,early
804_XP,108,slots visible: 1,50 cents,1,2.644186625,loss,early
804_XP,109,slots visible: 3,50 cents,1,2.217919168,loss,early
804_XP,110,slots visible: 5,40 cents,1,2.29323112,win,early
804_XP,111,slots visible: 4,30 cents,1,2.280534266,win,late
804_XP,112,slots visible: 4,30 cents,1,2.503621556,loss,early
804_XP,113,slots visible: 4,30 cents,1,2.986398783,win,early
804_XP,114,slots visible: 3,50 cents,1,2.652908858,loss,late
804_XP,115,slots visible: 2,30 cents,1,2.169338408,loss,early
804_XP,116,slots visible: 2,10 cents,1,2.079606796,loss,early
804_XP,117,slots visible: 1,50 cents,1,2.047703669,loss,early
804_XP,118,slots visible: 3,10 cents,1,1.894533239,win,late
804_XP,119,slots visible: 4,40 cents,1,2.864947029,win,early
804_XP,120,slots visible: 4,10 cents,0,2.62541318,win,late
804_XP,121,slots visible: 2,50 cents,1,2.373997694,loss,late
804_XP,122,slots visible: 2,50 cents,1,2.842451738,win,late
804_XP,123,slots visible: 4,20 cents,0,2.392919813,win,early
804_XP,124,slots visible: 4,50 cents,1,3.971233992,loss,late
804_XP,125,slots visible: 3,20 cents,1,2.049729981,win,early
804_XP,126,slots visible: 3,20 cents,0,2.064332038,loss,late
804_XP,127,slots visible: 1,20 cents,1,2.655070648,loss,early
804_XP,128,slots visible: 1,50 cents,1,2.713636348,win,early
804_XP,129,slots visible: 5,40 cents,1,3.05155982,loss,early
804_XP,130,slots visible: 3,30 cents,1,2.599766109,loss,early
804_XP,131,slots visible: 5,20 cents,1,2.223658235,loss,early
804_XP,132,slots visible: 5,10 cents,1,2.058909381,loss,early
804_XP,133,slots visible: 1,20 cents,1,2.309082688,loss,early
804_XP,134,slots visible: 2,20 cents,1,2.079718228,loss,early
804_XP,135,slots visible: 0,20 cents,1,2.398175322,win,late
804_XP,136,slots visible: 1,40 cents,1,2.37238896,win,late
804_XP,137,slots visible: 2,40 cents,1,2.934927815,win,late
804_XP,138,slots visible: 4,30 cents,0,2.333375854,win,late
804_XP,139,slots visible: 1,20 cents,0,2.275787535,win,early
804_XP,140,slots visible: 0,20 cents,1,2.566134899,loss,late
804_XP,141,slots visible: 4,20 cents,1,2.630755196,loss,late
804_XP,142,slots visible: 1,40 cents,1,2.439107707,win,late
804_XP,143,slots visible: 1,40 cents,0,4.821424424,loss,early
804_XP,144,slots visible: 4,10 cents,0,3.927880296,win,early
804_XP,145,slots visible: 0,30 cents,1,2.516651242,loss,late
804_XP,146,slots visible: 5,20 cents,1,2.076956755,loss,early
804_XP,147,slots visible: 1,10 cents,1,1.909456984,loss,early
804_XP,148,slots visible: 3,30 cents,1,2.44193604,loss,late
804_XP,149,slots visible: 2,40 cents,1,2.75433795,loss,early
804_XP,150,slots visible: 4,10 cents,1,2.122829119,win,late
804_XP,151,slots visible: 4,50 cents,1,2.626909015,loss,late
804_XP,152,slots visible: 3,10 cents,1,2.253745598,loss,late
804_XP,153,slots visible: 0,10 cents,1,2.889870961,loss,late
804_XP,154,slots visible: 2,40 cents,1,2.096334868,loss,late
804_XP,155,slots visible: 1,10 cents,1,2.986775307,loss,late
804_XP,156,slots visible: 5,50 cents,1,2.023267694,loss,early
804_XP,157,slots visible: 0,50 cents,1,2.253847061,loss,late
804_XP,158,slots visible: 5,40 cents,1,2.61185331,win,early
804_XP,159,slots visible: 5,30 cents,1,2.2643528,loss,early
804_XP,160,slots visible: 4,50 cents,1,2.682959565,win,early
804_XP,161,slots visible: 0,10 cents,1,2.600088677,win,late
804_XP,162,slots visible: 4,40 cents,0,2.224264076,win,late
804_XP,163,slots visible: 0,40 cents,1,3.148137494,loss,late
804_XP,164,slots visible: 3,40 cents,1,2.638726432,loss,late
804_XP,165,slots visible: 2,50 cents,1,2.360993814,win,late
804_XP,166,slots visible: 0,50 cents,1,3.719427026,loss,late
804_XP,167,slots visible: 3,30 cents,1,2.357260532,win,late
804_XP,168,slots visible: 5,30 cents,1,2.734545191,win,early
804_XP,169,slots visible: 0,20 cents,0,1.962951331,loss,late
804_XP,170,slots visible: 4,40 cents,1,2.847364739,loss,early
804_XP,171,slots visible: 1,40 cents,1,2.135752064,loss,early
804_XP,172,slots visible: 0,40 cents,1,2.428152132,loss,late
804_XP,173,slots visible: 4,10 cents,1,1.208556198,loss,early
804_XP,174,slots visible: 5,40 cents,1,2.138858685,loss,early
804_XP,175,slots visible: 5,50 cents,1,2.275430071,loss,early
804_XP,176,slots visible: 2,20 cents,1,2.253913627,loss,late
804_XP,177,slots visible: 0,40 cents,0,0.570247931,loss,late
804_XP,178,slots visible: 5,40 cents,1,2.128663783,loss,early
804_XP,179,slots visible: 1,20 cents,0,0.558458372,loss,late
804_XP,180,slots visible: 4,30 cents,0,1.215106084,loss,early
805_AM,1,slots visible: 3,40 cents,1,2.568632747,win,late
805_AM,2,slots visible: 5,10 cents,0,1.811939758,loss,early
805_AM,3,slots visible: 3,30 cents,1,2.911673317,loss,early
805_AM,4,slots visible: 2,30 cents,1,2.016760035,win,early
805_AM,5,slots visible: 4,50 cents,1,2.949737782,win,late
805_AM,6,slots visible: 1,30 cents,0,2.991705903,win,late
805_AM,7,slots visible: 1,40 cents,1,2.835881326,win,late
805_AM,8,slots visible: 2,10 cents,0,3.562504545,win,late
805_AM,9,slots visible: 4,40 cents,1,2.682562514,loss,early
805_AM,10,slots visible: 1,50 cents,1,2.089078266,win,late
805_AM,11,slots visible: 0,20 cents,1,2.628189902,loss,late
805_AM,12,slots visible: 0,50 cents,1,2.223520118,loss,late
805_AM,13,slots visible: 5,40 cents,0,1.87646651,win,early
805_AM,14,slots visible: 2,20 cents,0,2.736826039,win,early
805_AM,15,slots visible: 3,10 cents,0,2.045247169,win,late
805_AM,16,slots visible: 4,40 cents,1,1.711157268,win,early
805_AM,17,slots visible: 5,50 cents,1,2.144166391,loss,early
805_AM,18,slots visible: 1,30 cents,1,1.772610828,loss,early
805_AM,19,slots visible: 2,50 cents,1,2.030831615,win,late
805_AM,20,slots visible: 5,40 cents,0,2.756123803,loss,early
805_AM,21,slots visible: 4,40 cents,1,2.615732334,win,early
805_AM,22,slots visible: 2,30 cents,1,2.396205899,win,late
805_AM,23,slots visible: 4,10 cents,0,1.964491152,loss,late
805_AM,24,slots visible: 0,20 cents,1,2.033072581,loss,late
805_AM,25,slots visible: 4,30 cents,1,2.159564311,win,early
805_AM,26,slots visible: 2,40 cents,1,2.060019307,loss,early
805_AM,27,slots visible: 0,20 cents,1,2.436625988,win,late
805_AM,28,slots visible: 4,50 cents,1,2.686724224,loss,early
805_AM,29,slots visible: 4,40 cents,1,2.131072485,loss,late
805_AM,30,slots visible: 4,20 cents,1,1.943428356,loss,late
805_AM,31,slots visible: 2,10 cents,0,1.868012009,loss,late
805_AM,32,slots visible: 0,30 cents,1,3.034463142,loss,late
805_AM,33,slots visible: 0,10 cents,1,1.540702189,loss,late
805_AM,34,slots visible: 4,40 cents,0,1.249204431,loss,late
805_AM,35,slots visible: 5,30 cents,0,1.871695733,loss,early
805_AM,36,slots visible: 2,10 cents,1,1.862360328,loss,early
805_AM,37,slots visible: 4,20 cents,1,1.679411906,loss,early
805_AM,38,slots visible: 5,30 cents,0,1.834925938,win,early
805_AM,39,slots visible: 5,50 cents,1,3.461368989,loss,early
805_AM,40,slots visible: 2,30 cents,0,1.879786026,loss,late
805_AM,41,slots visible: 4,10 cents,1,1.844120586,loss,late
805_AM,42,slots visible: 3,40 cents,0,2.663372663,win,early
805_AM,43,slots visible: 5,50 cents,1,2.212393582,win,early
805_AM,44,slots visible: 0,20 cents,1,2.345795593,loss,late
805_AM,45,slots visible: 4,40 cents,1,2.011698947,win,late
805_AM,46,slots visible: 2,50 cents,1,2.720214091,loss,late
805_AM,47,slots visible: 2,20 cents,1,2.598752366,loss,late
805_AM,48,slots visible: 3,30 cents,1,2.655273573,win,early
805_AM,49,slots visible: 4,50 cents,1,2.235630778,loss,late
805_AM,50,slots visible: 2,10 cents,0,1.733223836,win,early
805_AM,51,slots visible: 1,40 cents,1,2.570462586,loss,early
805_AM,52,slots visible: 2,30 cents,0,1.76101569,loss,late
805_AM,53,slots visible: 0,40 cents,0,2.103229901,win,late
805_AM,54,slots visible: 1,10 cents,1,3.369632179,win,early
805_AM,55,slots visible: 3,10 cents,0,2.562133592,loss,early
805_AM,56,slots visible: 0,30 cents,0,2.456665658,win,late
805_AM,57,slots visible: 3,20 cents,1,2.412924587,loss,late
805_AM,58,slots visible: 1,40 cents,1,2.467466693,loss,late
805_AM,59,slots visible: 3,40 cents,1,1.758109354,loss,early
805_AM,60,slots visible: 1,20 cents,1,2.686296382,win,early
805_AM,61,slots visible: 2,40 cents,1,2.596378854,win,early
805_AM,62,slots visible: 2,50 cents,0,3.349170532,loss,early
805_AM,63,slots visible: 0,50 cents,0,2.703660792,win,late
805_AM,64,slots visible: 1,10 cents,0,2.426296195,loss,early
805_AM,65,slots visible: 5,40 cents,1,1.819926537,win,early
805_AM,66,slots visible: 5,30 cents,1,1.724341199,loss,early
805_AM,67,slots visible: 5,30 cents,0,2.064690089,win,early
805_AM,68,slots visible: 4,10 cents,1,1.672258233,win,early
805_AM,69,slots visible: 2,20 cents,1,2.530356561,win,early
805_AM,70,slots visible: 1,50 cents,0,2.134819843,loss,early
805_AM,71,slots visible: 5,10 cents,0,2.121317156,loss,early
805_AM,72,slots visible: 3,30 cents,1,1.793536973,win,early
805_AM,73,slots visible: 2,20 cents,1,2.487950334,loss,early
805_AM,74,slots visible: 5,50 cents,1,1.510472016,win,early
805_AM,75,slots visible: 0,50 cents,0,2.351631724,win,late
805_AM,76,slots visible: 5,50 cents,1,2.537254819,loss,early
805_AM,77,slots visible: 3,30 cents,1,2.077663765,loss,late
805_AM,78,slots visible: 3,10 cents,0,1.594191551,win,early
805_AM,79,slots visible: 4,10 cents,0,1.66837305,win,early
805_AM,80,slots visible: 0,10 cents,0,2.158905979,win,late
805_AM,81,slots visible: 4,10 cents,1,1.429632132,loss,late
805_AM,82,slots visible: 3,20 cents,1,0.805837069,loss,early
805_AM,83,slots visible: 4,30 cents,0,1.100270488,win,late
805_AM,84,slots visible: 0,40 cents,1,2.092723868,loss,late
805_AM,85,slots visible: 3,20 cents,0,1.52087688,win,early
805_AM,86,slots visible: 2,40 cents,1,2.473027762,win,late
805_AM,87,slots visible: 5,20 cents,1,2.299861355,win,early
805_AM,88,slots visible: 3,50 cents,0,1.878134772,win,early
805_AM,89,slots visible: 3,50 cents,1,1.698406457,loss,late
805_AM,90,slots visible: 0,20 cents,1,1.626899924,win,late
805_AM,91,slots visible: 4,20 cents,0,3.149323077,win,early
805_AM,92,slots visible: 1,30 cents,1,4.143904525,win,late
805_AM,93,slots visible: 2,40 cents,1,2.010480227,loss,late
805_AM,94,slots visible: 4,50 cents,1,1.111699944,win,late
805_AM,95,slots visible: 3,10 cents,1,1.465222501,loss,early
805_AM,96,slots visible: 1,20 cents,1,1.184514342,win,late
805_AM,97,slots visible: 1,20 cents,0,1.253979607,loss,early
805_AM,98,slots visible: 2,50 cents,0,1.994413419,win,early
805_AM,99,slots visible: 0,10 cents,1,1.344012966,win,late
805_AM,100,slots visible: 3,20 cents,1,2.027006254,win,late
805_AM,101,slots visible: 0,30 cents,0,1.66343571,win,late
805_AM,102,slots visible: 5,40 cents,1,3.457306395,win,early
805_AM,103,slots visible: 4,20 cents,1,1.894374887,win,early
805_AM,104,slots visible: 4,10 cents,0,1.761010118,win,early
805_AM,105,slots visible: 0,20 cents,1,2.02732325,win,late
805_AM,106,slots visible: 1,20 cents,1,3.139594433,win,late
805_AM,107,slots visible: 3,40 cents,1,1.71209506,win,late
805_AM,108,slots visible: 3,40 cents,0,1.806564899,loss,early
805_AM,109,slots visible: 1,10 cents,0,2.61488926,win,late
805_AM,110,slots visible: 4,50 cents,1,2.235368619,loss,early
805_AM,111,slots visible: 4,20 cents,0,0.699695261,win,late
805_AM,112,slots visible: 2,10 cents,0,1.83996474,win,early
805_AM,113,slots visible: 4,50 cents,1,3.866705609,win,early
805_AM,114,slots visible: 5,10 cents,1,2.003012783,loss,early
805_AM,115,slots visible: 0,10 cents,1,1.612333643,win,late
805_AM,116,slots visible: 5,30 cents,1,3.008013757,win,early
805_AM,117,slots visible: 2,30 cents,0,1.859011781,win,early
805_AM,118,slots visible: 0,30 cents,0,1.824806694,loss,late
805_AM,119,slots visible: 1,40 cents,1,1.873209456,win,late
805_AM,120,slots visible: 5,10 cents,0,2.133734256,win,early
805_AM,121,slots visible: 4,30 cents,1,1.862142155,win,early
805_AM,122,slots visible: 5,10 cents,1,1.787472113,win,early
805_AM,123,slots visible: 2,10 cents,0,1.191069506,loss,late
805_AM,124,slots visible: 5,20 cents,1,1.926068638,win,early
805_AM,125,slots visible: 1,30 cents,1,2.395481001,win,late
805_AM,126,slots visible: 1,50 cents,1,1.564332625,loss,early
805_AM,127,slots visible: 5,10 cents,0,0.666835282,win,early
805_AM,128,slots visible: 3,20 cents,0,1.655206127,loss,early
805_AM,129,slots visible: 1,30 cents,0,2.027491865,loss,early
805_AM,130,slots visible: 1,50 cents,1,0.623005065,win,late
805_AM,131,slots visible: 3,50 cents,0,1.31831663,loss,early
805_AM,132,slots visible: 3,40 cents,1,2.212711751,loss,late
805_AM,133,slots visible: 1,50 cents,1,1.119334537,loss,late
805_AM,134,slots visible: 2,50 cents,0,1.301292676,win,early
805_AM,135,slots visible: 3,30 cents,1,1.659965174,win,late
805_AM,136,slots visible: 2,20 cents,1,2.704298304,loss,late
805_AM,137,slots visible: 2,50 cents,1,1.082912236,loss,late
805_AM,138,slots visible: 0,30 cents,0,1.129253789,win,late
805_AM,139,slots visible: 0,40 cents,1,1.167500358,loss,late
805_AM,140,slots visible: 2,30 cents,1,2.010115726,loss,early
805_AM,141,slots visible: 0,40 cents,0,1.97433856,loss,late
805_AM,142,slots visible: 5,20 cents,1,2.01459238,loss,early
805_AM,143,slots visible: 0,10 cents,0,2.019687778,loss,late
805_AM,144,slots visible: 4,30 cents,1,1.717660527,loss,late
805_AM,145,slots visible: 3,30 cents,0,1.805936186,loss,late
805_AM,146,slots visible: 4,30 cents,1,2.902290114,loss,early
805_AM,147,slots visible: 3,10 cents,1,2.872815336,loss,late
805_AM,148,slots visible: 5,20 cents,1,2.146999416,loss,early
805_AM,149,slots visible: 4,20 cents,0,2.317753603,loss,late
805_AM,150,slots visible: 1,40 cents,1,2.116041999,win,early
805_AM,151,slots visible: 5,30 cents,1,3.058296795,loss,early
805_AM,152,slots visible: 5,20 cents,0,1.694888708,loss,early
805_AM,153,slots visible: 4,30 cents,1,1.185268857,loss,late
805_AM,154,slots visible: 5,20 cents,0,0.830552799,win,early
805_AM,155,slots visible: 3,50 cents,0,1.270351974,loss,late
805_AM,156,slots visible: 2,40 cents,1,1.047451187,win,late
805_AM,157,slots visible: 1,10 cents,0,1.982736466,loss,late
805_AM,158,slots visible: 2,40 cents,1,3.465251532,loss,early
805_AM,159,slots visible: 1,20 cents,0,2.931908288,loss,late
805_AM,160,slots visible: 1,40 cents,0,2.618480612,loss,early
805_AM,161,slots visible: 0,50 cents,1,1.182583334,win,late
805_AM,162,slots visible: 0,30 cents,1,2.016000535,loss,late
805_AM,163,slots visible: 0,50 cents,0,2.351430266,loss,late
805_AM,164,slots visible: 3,50 cents,1,1.44525409,win,late
805_AM,165,slots visible: 5,50 cents,0,2.190481259,win,early
805_AM,166,slots visible: 3,50 cents,0,2.532810422,win,early
805_AM,167,slots visible: 5,40 cents,1,1.803302566,loss,early
805_AM,168,slots visible: 1,10 cents,0,3.209482554,win,late
805_AM,169,slots visible: 3,10 cents,1,2.75062021,win,late
805_AM,170,slots visible: 1,50 cents,1,2.214719296,win,early
805_AM,171,slots visible: 0,40 cents,0,1.926883854,win,late
805_AM,172,slots visible: 2,20 cents,0,1.953248199,win,late
805_AM,173,slots visible: 1,30 cents,1,3.007646909,loss,early
805_AM,174,slots visible: 1,20 cents,0,1.876307572,loss,early
805_AM,175,slots visible: 0,40 cents,1,1.166663148,win,late
805_AM,176,slots visible: 0,50 cents,1,2.118735147,loss,late
805_AM,177,slots visible: 1,10 cents,0,3.143541782,loss,early
805_AM,178,slots visible: 3,20 cents,1,1.747911813,win,late
805_AM,179,slots visible: 5,40 cents,1,2.120135091,loss,early
805_AM,180,slots visible: 0,10 cents,0,2.572805307,loss,late
806_SG,1,slots visible: 2,10 cents,1,2.36102334,loss,early
806_SG,2,slots visible: 1,10 cents,0,2.099393065,loss,late
806_SG,3,slots visible: 1,20 cents,1,1.800042052,win,early
806_SG,4,slots visible: 5,10 cents,1,2.06131779,loss,early
806_SG,5,slots visible: 4,10 cents,1,1.117378823,loss,late
806_SG,6,slots visible: 4,50 cents,1,2.161376528,loss,late
806_SG,7,slots visible: 1,50 cents,1,2.074261742,win,late
806_SG,8,slots visible: 3,40 cents,1,2.078228503,win,early
806_SG,9,slots visible: 2,50 cents,1,3.012805538,win,late
806_SG,10,slots visible: 4,20 cents,1,2.851643961,loss,late
806_SG,11,slots visible: 4,30 cents,1,1.931595,win,early
806_SG,12,slots visible: 1,40 cents,0,2.07428872,loss,early
806_SG,13,slots visible: 0,10 cents,1,2.526929372,win,late
806_SG,14,slots visible: 5,10 cents,1,1.651113593,loss,early
806_SG,15,slots visible: 0,50 cents,0,2.721754606,win,late
806_SG,16,slots visible: 0,20 cents,1,2.754291899,loss,late
806_SG,17,slots visible: 0,50 cents,1,2.282433263,loss,late
806_SG,18,slots visible: 2,50 cents,1,2.040802478,loss,early
806_SG,19,slots visible: 2,30 cents,1,2.255233957,win,late
806_SG,20,slots visible: 4,30 cents,1,1.915633238,loss,late
806_SG,21,slots visible: 3,50 cents,1,2.034118191,loss,late
806_SG,22,slots visible: 3,30 cents,1,1.016640924,win,early
806_SG,23,slots visible: 5,40 cents,1,1.136878326,loss,early
806_SG,24,slots visible: 0,40 cents,1,1.831106362,loss,late
806_SG,25,slots visible: 3,10 cents,1,2.129657982,win,late
806_SG,26,slots visible: 2,10 cents,1,2.121692203,win,early
806_SG,27,slots visible: 2,50 cents,0,2.792580952,win,late
806_SG,28,slots visible: 2,20 cents,1,2.184922555,loss,late
806_SG,29,slots visible: 4,20 cents,1,0.90132979,loss,late
806_SG,30,slots visible: 5,50 cents,1,3.649916556,win,early
806_SG,31,slots visible: 1,50 cents,0,1.888054176,win,late
806_SG,32,slots visible: 2,30 cents,0,2.064724742,loss,early
806_SG,33,slots visible: 1,40 cents,1,2.439361225,loss,early
806_SG,34,slots visible: 3,10 cents,1,0.767346112,loss,early
806_SG,35,slots visible: 4,50 cents,1,1.22983138,win,early
806_SG,36,slots visible: 3,30 cents,1,2.236292505,win,early
806_SG,37,slots visible: 4,10 cents,1,1.868571682,loss,late
806_SG,38,slots visible: 1,10 cents,1,1.744776013,loss,late
806_SG,39,slots visible: 3,20 cents,1,2.341474572,loss,early
806_SG,40,slots visible: 2,10 cents,1,2.753510688,loss,late
806_SG,41,slots visible: 5,20 cents,1,2.148385071,win,early
806_SG,42,slots visible: 2,50 cents,0,2.254405826,loss,early
806_SG,43,slots visible: 3,10 cents,1,2.339261139,win,early
806_SG,44,slots visible: 1,30 cents,1,2.28841141,loss,early
806_SG,45,slots visible: 1,20 cents,0,1.791710886,win,late
806_SG,46,slots visible: 5,30 cents,1,2.204388041,win,early
806_SG,47,slots visible: 1,50 cents,1,2.356764798,loss,early
806_SG,48,slots visible: 2,30 cents,1,1.111020921,win,early
806_SG,49,slots visible: 5,40 cents,1,2.177611011,loss,early
806_SG,50,slots visible: 2,10 cents,1,1.973744951,win,late
806_SG,51,slots visible: 0,20 cents,0,3.514596548,win,late
806_SG,52,slots visible: 5,10 cents,1,2.196725186,win,early
806_SG,53,slots visible: 3,50 cents,1,2.429117791,win,early
806_SG,54,slots visible: 3,40 cents,1,2.325650343,win,late
806_SG,55,slots visible: 3,30 cents,1,2.34806414,loss,early
806_SG,56,slots visible: 5,50 cents,1,2.25452987,win,early
806_SG,57,slots visible: 4,30 cents,1,2.106801967,win,early
806_SG,58,slots visible: 0,40 cents,0,2.049496391,loss,late
806_SG,59,slots visible: 5,30 cents,1,2.315900152,win,early
806_SG,60,slots visible: 4,20 cents,1,0.00120994,win,early
806_SG,61,slots visible: 0,10 cents,1,3.841195254,loss,late
806_SG,62,slots visible: 2,20 cents,0,2.439192314,win,late
806_SG,63,slots visible: 2,20 cents,1,2.400039061,loss,early
806_SG,64,slots visible: 1,10 cents,0,2.133410966,win,early
806_SG,65,slots visible: 0,50 cents,0,2.042489239,win,late
806_SG,66,slots visible: 2,20 cents,0,2.753070523,loss,late
806_SG,67,slots visible: 4,50 cents,1,2.37155357,win,early
806_SG,68,slots visible: 5,40 cents,1,2.51289102,loss,early
806_SG,69,slots visible: 4,40 cents,1,2.202447621,win,early
806_SG,70,slots visible: 2,40 cents,0,2.244866187,win,early
806_SG,71,slots visible: 5,30 cents,1,2.053116533,loss,early
806_SG,72,slots visible: 5,20 cents,1,1.675581591,win,early
806_SG,73,slots visible: 3,20 cents,1,2.620111158,loss,late
806_SG,74,slots visible: 5,20 cents,1,2.224439435,loss,early
806_SG,75,slots visible: 5,50 cents,1,2.570717404,loss,early
806_SG,76,slots visible: 0,50 cents,1,2.273272207,loss,late
806_SG,77,slots visible: 1,40 cents,1,2.345709948,win,early
806_SG,78,slots visible: 0,30 cents,0,2.428224558,loss,late
806_SG,79,slots visible: 0,40 cents,1,2.760662704,win,late
806_SG,80,slots visible: 3,40 cents,1,2.416979977,loss,late
806_SG,81,slots visible: 2,10 cents,1,2.013306699,loss,late
806_SG,82,slots visible: 1,30 cents,1,1.975964836,win,early
806_SG,83,slots visible: 0,20 cents,0,2.542590556,loss,late
806_SG,84,slots visible: 5,20 cents,1,2.370734236,win,early
806_SG,85,slots visible: 2,40 cents,1,2.278879982,loss,early
806_SG,86,slots visible: 0,20 cents,1,2.319437305,loss,late
806_SG,87,slots visible: 4,50 cents,1,2.581971662,loss,late
806_SG,88,slots visible: 2,40 cents,1,2.744449628,win,late
806_SG,89,slots visible: 1,40 cents,0,2.196692049,loss,late
806_SG,90,slots visible: 1,40 cents,1,2.383094918,win,late
806_SG,91,slots visible: 1,30 cents,0,2.387551989,loss,late
806_SG,92,slots visible: 5,30 cents,1,1.902241497,loss,early
806_SG,93,slots visible: 0,10 cents,0,2.318480731,loss,late
806_SG,94,slots visible: 1,10 cents,1,1.83891408,win,late
806_SG,95,slots visible: 1,50 cents,1,2.851624313,loss,early
806_SG,96,slots visible: 5,50 cents,1,2.407703088,win,early
806_SG,97,slots visible: 0,30 cents,1,2.200340343,loss,late
806_SG,98,slots visible: 3,30 cents,1,2.336550358,loss,late
806_SG,99,slots visible: 0,50 cents,1,2.630849887,win,late
806_SG,100,slots visible: 0,20 cents,1,2.583271629,win,late
806_SG,101,slots visible: 3,20 cents,1,2.618144933,loss,late
806_SG,102,slots visible: 1,50 cents,1,2.468543764,loss,early
806_SG,103,slots visible: 3,40 cents,1,2.228437867,win,late
806_SG,104,slots visible: 2,30 cents,1,2.197013155,loss,early
806_SG,105,slots visible: 5,40 cents,1,2.82932019,win,early
806_SG,106,slots visible: 5,30 cents,1,2.560080725,loss,early
806_SG,107,slots visible: 5,10 cents,1,2.358747739,win,early
806_SG,108,slots visible: 0,30 cents,0,2.318901834,win,late
806_SG,109,slots visible: 3,10 cents,1,2.671312491,win,late
806_SG,110,slots visible: 4,40 cents,1,2.439860039,win,late
806_SG,111,slots visible: 0,10 cents,1,2.310058365,win,late
806_SG,112,slots visible: 4,20 cents,1,2.330429986,win,early
806_SG,113,slots visible: 4,40 cents,1,2.502923826,win,late
806_SG,114,slots visible: 2,30 cents,0,2.889451208,loss,late
806_SG,115,slots visible: 2,10 cents,1,1.925936787,win,early
806_SG,116,slots visible: 0,30 cents,0,2.400450194,win,late
806_SG,117,slots visible: 4,10 cents,1,2.300894963,win,early
806_SG,118,slots visible: 2,40 cents,0,2.373033591,loss,early
806_SG,119,slots visible: 4,10 cents,1,2.313710178,loss,early
806_SG,120,slots visible: 5,50 cents,1,2.593515356,loss,early
806_SG,121,slots visible: 0,30 cents,0,2.406639772,loss,late
806_SG,122,slots visible: 4,40 cents,1,2.695224491,loss,late
806_SG,123,slots visible: 2,40 cents,1,2.229265705,win,late
806_SG,124,slots visible: 1,20 cents,0,2.159899733,loss,late
806_SG,125,slots visible: 5,20 cents,1,2.3366354,loss,early
806_SG,126,slots visible: 3,20 cents,1,2.092527258,win,late
806_SG,127,slots visible: 5,10 cents,1,2.091423181,win,early
806_SG,128,slots visible: 3,40 cents,1,2.321500595,loss,early
806_SG,129,slots visible: 3,50 cents,1,2.818108746,loss,late
806_SG,130,slots visible: 0,20 cents,1,2.318466068,win,late
806_SG,131,slots visible: 3,10 cents,1,2.062850596,loss,early
806_SG,132,slots visible: 1,30 cents,1,3.987254284,win,late
806_SG,133,slots visible: 5,20 cents,1,2.061633618,loss,early
806_SG,134,slots visible: 3,50 cents,1,2.162200554,win,early
806_SG,135,slots visible: 4,30 cents,1,2.312709031,win,late
806_SG,136,slots visible: 1,10 cents,1,3.494508205,win,early
806_SG,137,slots visible: 3,20 cents,1,2.221432767,win,early
806_SG,138,slots visible: 5,10 cents,1,2.082022248,loss,early
806_SG,139,slots visible: 2,50 cents,1,2.722260752,loss,early
806_SG,140,slots visible: 4,40 cents,1,2.419035057,loss,early
806_SG,141,slots visible: 1,20 cents,0,1.919079777,loss,late
806_SG,142,slots visible: 4,40 cents,1,2.295480438,loss,early
806_SG,143,slots visible: 3,40 cents,1,2.309969218,loss,early
806_SG,144,slots visible: 1,30 cents,0,2.250570147,win,early
806_SG,145,slots visible: 4,30 cents,1,1.920707595,loss,late
806_SG,146,slots visible: 0,40 cents,1,2.487271146,loss,late
806_SG,147,slots visible: 0,40 cents,1,2.407891646,win,late
806_SG,148,slots visible: 1,30 cents,1,2.04600997,loss,late
806_SG,149,slots visible: 3,10 cents,1,2.436541648,loss,late
806_SG,150,slots visible: 3,30 cents,1,2.262729367,loss,late
806_SG,151,slots visible: 5,40 cents,1,2.403378858,win,early
806_SG,152,slots visible: 2,40 cents,0,2.297700323,loss,late
806_SG,153,slots visible: 2,20 cents,1,3.646078531,win,early
806_SG,154,slots visible: 1,10 cents,1,3.212750584,loss,early
806_SG,155,slots visible: 3,50 cents,1,2.211129218,loss,early
806_SG,156,slots visible: 4,10 cents,1,2.343570413,win,early
806_SG,157,slots visible: 4,10 cents,1,2.170005927,win,late
806_SG,158,slots visible: 0,50 cents,1,2.448500288,loss,late
806_SG,159,slots visible: 2,50 cents,1,3.295052883,win,late
806_SG,160,slots visible: 1,20 cents,1,1.941173935,win,early
806_SG,161,slots visible: 3,30 cents,1,2.227068987,win,late
806_SG,162,slots visible: 2,30 cents,1,2.190188696,win,late
806_SG,163,slots visible: 4,50 cents,1,2.374650266,win,late
806_SG,164,slots visible: 1,20 cents,0,2.683116882,loss,early
806_SG,165,slots visible: 5,40 cents,1,2.467260513,win,early
806_SG,166,slots visible: 1,40 cents,0,2.3977139,win,late
806_SG,167,slots visible: 0,10 cents,1,2.580218628,loss,late
806_SG,168,slots visible: 4,50 cents,1,2.278615766,loss,early
806_SG,169,slots visible: 0,10 cents,0,2.041401876,win,late
806_SG,170,slots visible: 2,20 cents,1,2.259718007,win,early
806_SG,171,slots visible: 3,20 cents,1,1.91002341,win,early
806_SG,172,slots visible: 0,30 cents,1,2.31476323,win,late
806_SG,173,slots visible: 5,30 cents,1,2.404795244,win,early
806_SG,174,slots visible: 1,50 cents,0,2.203186605,win,late
806_SG,175,slots visible: 4,30 cents,1,2.489791023,loss,early
806_SG,176,slots visible: 4,20 cents,1,2.400204746,loss,late
806_SG,177,slots visible: 4,20 cents,1,2.528309688,win,early
806_SG,178,slots visible: 0,40 cents,99,5,win,late
806_SG,179,slots visible: 3,50 cents,1,2.733144638,win,late
806_SG,180,slots visible: 5,50 cents,1,2.249786003,loss,early
807_YM,1,slots visible: 4,50 cents,1,2.451487015,win,late
807_YM,2,slots visible: 0,30 cents,0,2.22412654,loss,late
807_YM,3,slots visible: 1,20 cents,1,3.90088376,loss,early
807_YM,4,slots visible: 3,20 cents,1,2.247278149,win,late
807_YM,5,slots visible: 0,50 cents,1,1.773758558,loss,late
807_YM,6,slots visible: 5,20 cents,1,1.725805236,loss,early
807_YM,7,slots visible: 1,40 cents,1,1.209861215,win,late
807_YM,8,slots visible: 1,30 cents,0,1.49115697,win,late
807_YM,9,slots visible: 0,10 cents,0,1.111399211,win,late
807_YM,10,slots visible: 2,10 cents,0,0.981089925,win,late
807_YM,11,slots visible: 4,10 cents,1,1.379962447,loss,late
807_YM,12,slots visible: 5,50 cents,1,1.094241877,loss,early
807_YM,13,slots visible: 2,40 cents,1,0.870940243,loss,late
807_YM,14,slots visible: 4,10 cents,0,1.751157375,loss,early
807_YM,15,slots visible: 5,40 cents,1,0.83356583,loss,early
807_YM,16,slots visible: 5,50 cents,1,0.835892163,win,early
807_YM,17,slots visible: 4,50 cents,1,0.962363717,loss,early
807_YM,18,slots visible: 1,30 cents,1,1.144570505,loss,late
807_YM,19,slots visible: 2,10 cents,0,1.217012059,loss,late
807_YM,20,slots visible: 1,20 cents,0,1.651688652,win,early
807_YM,21,slots visible: 1,40 cents,1,0.598346025,win,early
807_YM,22,slots visible: 0,20 cents,0,1.888248306,win,late
807_YM,23,slots visible: 1,10 cents,1,3.044784488,win,late
807_YM,24,slots visible: 2,20 cents,1,0.964602956,win,early
807_YM,25,slots visible: 2,20 cents,1,1.377139645,loss,late
807_YM,26,slots visible: 2,20 cents,1,0.957733336,loss,late
807_YM,27,slots visible: 1,20 cents,1,1.006143538,win,late
807_YM,28,slots visible: 2,40 cents,1,0.706152365,win,late
807_YM,29,slots visible: 2,50 cents,1,1.990753608,win,early
807_YM,30,slots visible: 3,40 cents,1,1.821449717,win,early
807_YM,31,slots visible: 3,30 cents,0,0.967797009,win,early
807_YM,32,slots visible: 4,20 cents,1,0.95806412,win,late
807_YM,33,slots visible: 3,30 cents,1,1.002797876,loss,early
807_YM,34,slots visible: 5,50 cents,1,0.956158303,win,early
807_YM,35,slots visible: 4,30 cents,1,1.217408236,win,late
807_YM,36,slots visible: 2,40 cents,0,1.621770354,win,early
807_YM,37,slots visible: 3,20 cents,1,0.898244532,loss,early
807_YM,38,slots visible: 0,30 cents,0,2.590517779,loss,late
807_YM,39,slots visible: 2,10 cents,0,1.040796027,loss,late
807_YM,40,slots visible: 0,40 cents,1,1.153240958,win,late
807_YM,41,slots visible: 2,20 cents,0,1.577854465,win,late
807_YM,42,slots visible: 5,50 cents,1,0.950993626,loss,early
807_YM,43,slots visible: 1,30 cents,1,2.686633508,loss,early
807_YM,44,slots visible: 1,20 cents,0,2.343348425,loss,early
807_YM,45,slots visible: 4,20 cents,1,0.94730545,win,late
807_YM,46,slots visible: 4,20 cents,1,1.191824431,loss,late
807_YM,47,slots visible: 4,20 cents,1,0.83397667,win,early
807_YM,48,slots visible: 5,30 cents,1,0.862409669,win,early
807_YM,49,slots visible: 4,40 cents,1,1.478967545,loss,early
807_YM,50,slots visible: 2,50 cents,1,1.3540895,loss,late
807_YM,51,slots visible: 1,40 cents,1,1.919745743,win,late
807_YM,52,slots visible: 2,20 cents,0,0.878196069,win,early
807_YM,53,slots visible: 3,40 cents,1,0.808269701,loss,late
807_YM,54,slots visible: 3,30 cents,1,1.522970235,win,late
807_YM,55,slots visible: 2,50 cents,1,0.9952098,win,early
807_YM,56,slots visible: 1,10 cents,0,0.965446043,loss,early
807_YM,57,slots visible: 4,40 cents,1,0.673922982,win,early
807_YM,58,slots visible: 1,50 cents,1,1.156260529,win,early
807_YM,59,slots visible: 5,40 cents,1,1.798937388,win,early
807_YM,60,slots visible: 0,20 cents,0,3.077071934,win,late
807_YM,61,slots visible: 5,10 cents,1,1.606048467,win,early
807_YM,62,slots visible: 1,30 cents,0,1.250204174,win,late
807_YM,63,slots visible: 3,40 cents,1,0.758421706,loss,late
807_YM,64,slots visible: 4,30 cents,1,0.718782248,loss,early
807_YM,65,slots visible: 3,10 cents,1,2.843503113,win,early
807_YM,66,slots visible: 2,50 cents,1,0.95384106,loss,late
807_YM,67,slots visible: 4,40 cents,1,0.672231823,loss,late
807_YM,68,slots visible: 3,50 cents,1,0.802748141,win,early
807_YM,69,slots visible: 4,50 cents,1,1.208856255,win,late
807_YM,70,slots visible: 2,20 cents,0,0.825405334,loss,early
807_YM,71,slots visible: 5,10 cents,1,1.264931657,loss,early
807_YM,72,slots visible: 0,30 cents,1,1.455324747,win,late
807_YM,73,slots visible: 3,30 cents,0,2.060448311,win,late
807_YM,74,slots visible: 5,30 cents,1,0.760936011,loss,early
807_YM,75,slots visible: 4,20 cents,1,0.7011261,loss,early
807_YM,76,slots visible: 3,10 cents,1,2.599610215,loss,late
807_YM,77,slots visible: 0,10 cents,0,1.39813471,loss,late
807_YM,78,slots visible: 4,10 cents,1,1.060294356,win,early
807_YM,79,slots visible: 0,40 cents,1,1.130836545,win,late
807_YM,80,slots visible: 4,40 cents,1,0.547748195,win,late
807_YM,81,slots visible: 2,30 cents,0,0.837365733,win,early
807_YM,82,slots visible: 4,30 cents,1,0.579813066,loss,early
807_YM,83,slots visible: 2,30 cents,1,0.924269088,win,late
807_YM,84,slots visible: 3,30 cents,0,1.354365739,loss,early
807_YM,85,slots visible: 5,20 cents,0,1.220963571,loss,early
807_YM,86,slots visible: 0,40 cents,1,1.031415621,loss,late
807_YM,87,slots visible: 0,30 cents,1,0.929900322,win,late
807_YM,88,slots visible: 5,20 cents,0,0.876104041,win,early
807_YM,89,slots visible: 1,40 cents,1,0.774337136,loss,early
807_YM,90,slots visible: 1,10 cents,1,1.274785071,win,late
807_YM,91,slots visible: 5,30 cents,1,0.740548262,win,early
807_YM,92,slots visible: 0,10 cents,0,1.024970037,win,late
807_YM,93,slots visible: 2,40 cents,1,0.853907833,loss,early
807_YM,94,slots visible: 4,40 cents,1,0.803746943,win,late
807_YM,95,slots visible: 5,20 cents,1,0.836829383,win,early
807_YM,96,slots visible: 5,10 cents,1,1.04715129,win,early
807_YM,97,slots visible: 0,40 cents,1,0.919408508,loss,late
807_YM,98,slots visible: 2,10 cents,0,0.78389437,loss,early
807_YM,99,slots visible: 1,30 cents,1,0.88836971,loss,early
807_YM,100,slots visible: 0,40 cents,1,0.566000516,win,late
807_YM,101,slots visible: 2,30 cents,1,0.909082085,loss,late
807_YM,102,slots visible: 1,40 cents,1,1.747473598,loss,early
807_YM,103,slots visible: 1,50 cents,1,1.867685194,win,late
807_YM,104,slots visible: 5,10 cents,1,2.354434652,win,early
807_YM,105,slots visible: 0,20 cents,1,1.017825645,loss,late
807_YM,106,slots visible: 4,20 cents,1,0.778699781,loss,early
807_YM,107,slots visible: 2,40 cents,1,2.901481986,win,early
807_YM,108,slots visible: 1,50 cents,1,2.907989738,loss,early
807_YM,109,slots visible: 1,50 cents,1,0.696583401,loss,early
807_YM,110,slots visible: 2,30 cents,1,0.940644916,win,early
807_YM,111,slots visible: 3,20 cents,1,0.752937975,loss,late
807_YM,112,slots visible: 5,20 cents,1,1.317507149,loss,early
807_YM,113,slots visible: 0,20 cents,1,0.829652147,win,late
807_YM,114,slots visible: 5,30 cents,1,1.11980838,win,early
807_YM,115,slots visible: 1,20 cents,0,1.040312168,loss,late
807_YM,116,slots visible: 0,50 cents,1,0.763006926,loss,late
807_YM,117,slots visible: 5,10 cents,1,0.829268579,loss,early
807_YM,118,slots visible: 1,10 cents,1,0.783488808,win,late
807_YM,119,slots visible: 2,10 cents,1,1.236060253,win,early
807_YM,120,slots visible: 3,20 cents,1,1.027767034,loss,early
807_YM,121,slots visible: 3,20 cents,1,0.748846877,win,late
807_YM,122,slots visible: 3,40 cents,1,0.645657134,win,early
807_YM,123,slots visible: 0,20 cents,1,0.913457926,loss,late
807_YM,124,slots visible: 4,10 cents,1,1.044131719,win,late
807_YM,125,slots visible: 1,30 cents,1,1.082587922,win,early
807_YM,126,slots visible: 0,50 cents,1,1.011012329,win,late
807_YM,127,slots visible: 3,10 cents,0,1.655134019,loss,early
807_YM,128,slots visible: 2,30 cents,1,1.125676559,loss,early
807_YM,129,slots visible: 3,50 cents,1,0.757403843,loss,late
807_YM,130,slots visible: 2,30 cents,1,0.75037499,loss,late
807_YM,131,slots visible: 0,50 cents,1,0.67272184,win,late
807_YM,132,slots visible: 0,30 cents,1,1.081076231,loss,late
807_YM,133,slots visible: 1,50 cents,1,0.619680084,win,late
807_YM,134,slots visible: 1,10 cents,0,0.847807695,loss,early
807_YM,135,slots visible: 5,40 cents,1,0.558410093,loss,early
807_YM,136,slots visible: 0,10 cents,1,0.798611883,loss,late
807_YM,137,slots visible: 4,50 cents,1,0.5531636,win,early
807_YM,138,slots visible: 2,10 cents,0,0.873440179,win,early
807_YM,139,slots visible: 3,50 cents,1,0.681856211,loss,early
807_YM,140,slots visible: 5,30 cents,1,0.519918407,loss,early
807_YM,141,slots visible: 4,10 cents,0,1.676320282,win,early
807_YM,142,slots visible: 4,10 cents,1,0.716796961,loss,late
807_YM,143,slots visible: 3,10 cents,0,1.309170118,loss,late
807_YM,144,slots visible: 0,10 cents,1,1.019664894,loss,late
807_YM,145,slots visible: 3,20 cents,1,1.361908655,win,early
807_YM,146,slots visible: 3,50 cents,1,0.792173924,loss,late
807_YM,147,slots visible: 0,40 cents,1,0.706878739,loss,late
807_YM,148,slots visible: 2,50 cents,1,0.576979708,loss,early
807_YM,149,slots visible: 3,40 cents,1,0.647383483,loss,late
807_YM,150,slots visible: 0,10 cents,0,1.053465498,win,late
807_YM,151,slots visible: 5,50 cents,1,0.628242036,win,early
807_YM,152,slots visible: 0,50 cents,1,0.750489357,win,late
807_YM,153,slots visible: 5,40 cents,1,0.599009351,win,early
807_YM,154,slots visible: 4,30 cents,1,1.860210311,loss,late
807_YM,155,slots visible: 4,50 cents,1,0.779773947,loss,early
807_YM,156,slots visible: 2,40 cents,1,1.174012569,loss,late
807_YM,157,slots visible: 0,30 cents,0,1.08815259,win,late
807_YM,158,slots visible: 5,10 cents,1,1.066907091,loss,early
807_YM,159,slots visible: 1,20 cents,1,0.931331957,win,late
807_YM,160,slots visible: 0,20 cents,1,0.929770707,loss,late
807_YM,161,slots visible: 4,50 cents,1,0.54417292,loss,late
807_YM,162,slots visible: 3,10 cents,1,0.944442766,win,early
807_YM,163,slots visible: 5,40 cents,1,0.570637934,win,early
807_YM,164,slots visible: 3,40 cents,1,0.736457164,win,early
807_YM,165,slots visible: 3,50 cents,1,0.791319694,win,early
807_YM,166,slots visible: 5,30 cents,1,1.077721184,loss,early
807_YM,167,slots visible: 4,30 cents,0,1.319377482,win,late
807_YM,168,slots visible: 5,40 cents,1,0.736516106,loss,early
807_YM,169,slots visible: 1,50 cents,1,0.91304562,loss,late
807_YM,170,slots visible: 3,50 cents,1,0.64936877,win,late
807_YM,171,slots visible: 5,50 cents,0,2.552939265,loss,early
807_YM,172,slots visible: 1,40 cents,1,0.618179536,loss,late
807_YM,173,slots visible: 3,10 cents,1,0.936528599,win,late
807_YM,174,slots visible: 2,50 cents,1,0.678753357,win,late
807_YM,175,slots visible: 3,30 cents,1,1.221231892,loss,late
807_YM,176,slots visible: 5,20 cents,1,2.05378983,win,early
807_YM,177,slots visible: 1,10 cents,1,1.129969705,loss,early
807_YM,178,slots visible: 4,30 cents,1,0.576327525,win,early
807_YM,179,slots visible: 0,50 cents,1,2.032906492,loss,late
807_YM,180,slots visible: 4,40 cents,1,0.556716295,loss,early
808_HV,1,slots visible: 3,40 cents,1,1.960513617,win,early
808_HV,2,slots visible: 1,40 cents,1,1.711805007,win,late
808_HV,3,slots visible: 4,40 cents,1,1.892439401,loss,late
808_HV,4,slots visible: 4,30 cents,1,2.897500562,win,late
808_HV,5,slots visible: 0,20 cents,1,2.671518058,win,late
808_HV,6,slots visible: 2,40 cents,1,1.863961535,win,late
808_HV,7,slots visible: 1,30 cents,1,3.568201926,loss,early
808_HV,8,slots visible: 0,20 cents,1,1.74850583,win,late
808_HV,9,slots visible: 3,10 cents,0,2.074363792,win,early
808_HV,10,slots visible: 1,30 cents,1,2.28332503,win,late
808_HV,11,slots visible: 2,20 cents,1,1.866064414,loss,early
808_HV,12,slots visible: 0,20 cents,1,2.094147451,loss,late
808_HV,13,slots visible: 4,10 cents,0,1.792910855,loss,late
808_HV,14,slots visible: 4,50 cents,1,2.252297962,loss,early
808_HV,15,slots visible: 1,20 cents,1,2.035734279,win,late
808_HV,16,slots visible: 3,10 cents,0,3.074136818,win,late
808_HV,17,slots visible: 1,30 cents,1,2.228400038,loss,late
808_HV,18,slots visible: 0,40 cents,1,1.88693309,loss,late
808_HV,19,slots visible: 0,10 cents,0,1.773184672,win,late
808_HV,20,slots visible: 5,10 cents,0,2.375815925,win,early
808_HV,21,slots visible: 3,50 cents,1,2.470175394,loss,early
808_HV,22,slots visible: 1,40 cents,1,3.920596747,win,early
808_HV,23,slots visible: 5,20 cents,1,3.313360334,loss,early
808_HV,24,slots visible: 1,10 cents,0,1.689541059,win,early
808_HV,25,slots visible: 5,50 cents,1,1.584254302,win,early
808_HV,26,slots visible: 4,10 cents,0,2.01016631,win,late
808_HV,27,slots visible: 0,30 cents,1,1.592780477,loss,late
808_HV,28,slots visible: 4,10 cents,1,1.225634419,win,early
808_HV,29,slots visible: 4,20 cents,1,1.621421389,win,early
808_HV,30,slots visible: 2,10 cents,1,2.882066352,win,early
808_HV,31,slots visible: 5,50 cents,1,1.896226988,loss,early
808_HV,32,slots visible: 3,40 cents,1,1.838976835,win,late
808_HV,33,slots visible: 3,10 cents,1,2.309143139,win,early
808_HV,34,slots visible: 0,50 cents,1,1.375802142,loss,late
808_HV,35,slots visible: 5,30 cents,1,1.426383256,win,early
808_HV,36,slots visible: 5,10 cents,1,2.072465013,win,early
808_HV,37,slots visible: 1,40 cents,1,2.376956952,loss,early
808_HV,38,slots visible: 2,40 cents,1,1.965203527,loss,early
808_HV,39,slots visible: 1,10 cents,1,2.24784265,win,early
808_HV,40,slots visible: 2,30 cents,1,1.565939227,win,early
808_HV,41,slots visible: 3,10 cents,0,1.616586615,loss,late
808_HV,42,slots visible: 2,30 cents,1,1.741052061,win,early
808_HV,43,slots visible: 5,50 cents,1,1.645447462,loss,early
808_HV,44,slots visible: 4,20 cents,1,0.955892914,loss,early
808_HV,45,slots visible: 2,20 cents,0,1.682160895,loss,late
808_HV,46,slots visible: 1,50 cents,1,1.186701102,win,late
808_HV,47,slots visible: 0,30 cents,1,0.876796692,win,late
808_HV,48,slots visible: 0,30 cents,1,1.00119821,win,late
808_HV,49,slots visible: 1,30 cents,1,1.009820864,win,early
808_HV,50,slots visible: 0,50 cents,1,0.800110085,win,late
808_HV,51,slots visible: 5,20 cents,0,0.922387317,win,early
808_HV,52,slots visible: 2,50 cents,1,1.122951115,loss,early
808_HV,53,slots visible: 0,40 cents,1,0.927279568,win,late
808_HV,54,slots visible: 3,20 cents,0,1.121481945,win,early
808_HV,55,slots visible: 5,40 cents,1,0.973837031,win,early
808_HV,56,slots visible: 3,40 cents,1,0.33042852,win,early
808_HV,57,slots visible: 3,30 cents,1,0.330662238,win,early
808_HV,58,slots visible: 3,20 cents,1,0.557125375,loss,late
808_HV,59,slots visible: 3,30 cents,1,0.797140953,win,late
808_HV,60,slots visible: 3,40 cents,1,2.047878544,loss,late
808_HV,61,slots visible: 4,20 cents,0,0.88050862,win,late
808_HV,62,slots visible: 2,10 cents,0,0.96668648,loss,late
808_HV,63,slots visible: 1,40 cents,1,0.691161545,loss,early
808_HV,64,slots visible: 1,50 cents,1,0.583405643,loss,early
808_HV,65,slots visible: 5,20 cents,1,1.299994692,loss,early
808_HV,66,slots visible: 0,40 cents,1,0.992287294,win,late
808_HV,67,slots visible: 0,30 cents,1,0.754847604,loss,late
808_HV,68,slots visible: 2,40 cents,1,0.416976752,win,late
808_HV,69,slots visible: 1,30 cents,1,0.397364349,loss,late
808_HV,70,slots visible: 1,40 cents,1,0.451855041,win,late
808_HV,71,slots visible: 3,30 cents,1,1.070431048,loss,early
808_HV,72,slots visible: 5,20 cents,1,0.630341982,win,early
808_HV,73,slots visible: 4,50 cents,1,0.682876126,win,late
808_HV,74,slots visible: 4,30 cents,1,0.687207687,win,late
808_HV,75,slots visible: 0,30 cents,1,0.403646593,win,late
808_HV,76,slots visible: 2,30 cents,1,0.320099458,loss,late
808_HV,77,slots visible: 5,10 cents,0,0.814979794,loss,early
808_HV,78,slots visible: 4,10 cents,0,0.872617619,loss,late
808_HV,79,slots visible: 5,30 cents,1,0.751361769,loss,early
808_HV,80,slots visible: 2,40 cents,1,0.739685234,win,late
808_HV,81,slots visible: 3,50 cents,1,0.937953196,win,early
808_HV,82,slots visible: 2,10 cents,0,0.942360708,loss,early
808_HV,83,slots visible: 4,30 cents,1,0.616806257,loss,early
808_HV,84,slots visible: 2,20 cents,1,0.818874123,loss,late
808_HV,85,slots visible: 3,30 cents,1,0.843306637,loss,early
808_HV,86,slots visible: 3,50 cents,1,0.921582646,loss,early
808_HV,87,slots visible: 1,50 cents,1,1.234102238,win,late
808_HV,88,slots visible: 4,50 cents,1,1.206367169,loss,early
808_HV,89,slots visible: 1,20 cents,0,1.126986203,loss,late
808_HV,90,slots visible: 5,50 cents,1,0.451175586,loss,early
808_HV,91,slots visible: 3,20 cents,1,1.078247857,loss,late
808_HV,92,slots visible: 0,40 cents,1,0.543343322,win,late
808_HV,93,slots visible: 2,30 cents,1,0.864403166,win,early
808_HV,94,slots visible: 4,40 cents,1,1.242644542,loss,early
808_HV,95,slots visible: 5,40 cents,1,0.334981483,loss,early
808_HV,96,slots visible: 5,20 cents,1,0.266486456,win,early
808_HV,97,slots visible: 1,10 cents,1,1.017571692,loss,late
808_HV,98,slots visible: 0,10 cents,1,0.402183874,loss,late
808_HV,99,slots visible: 5,30 cents,1,0.728436254,win,early
808_HV,100,slots visible: 3,20 cents,1,0.830714876,win,early
808_HV,101,slots visible: 5,10 cents,1,0.391431949,loss,early
808_HV,102,slots visible: 2,20 cents,0,0.993649136,win,late
808_HV,103,slots visible: 1,10 cents,1,0.930007944,loss,late
808_HV,104,slots visible: 2,20 cents,1,0.466407162,win,early
808_HV,105,slots visible: 3,30 cents,1,1.516566879,win,late
808_HV,106,slots visible: 0,50 cents,1,0.733142586,loss,late
808_HV,107,slots visible: 5,40 cents,1,1.251493584,win,early
808_HV,108,slots visible: 1,20 cents,0,1.115985897,loss,early
808_HV,109,slots visible: 4,20 cents,0,1.08335887,loss,late
808_HV,110,slots visible: 1,10 cents,0,0.660801323,loss,late
808_HV,111,slots visible: 0,50 cents,1,0.828641909,win,late
808_HV,112,slots visible: 1,20 cents,1,1.785440078,win,early
808_HV,113,slots visible: 0,10 cents,0,1.195676239,win,late
808_HV,114,slots visible: 2,40 cents,1,0.882190396,loss,early
808_HV,115,slots visible: 0,50 cents,1,0.82450653,loss,late
808_HV,116,slots visible: 3,50 cents,1,0.608973613,win,late
808_HV,117,slots visible: 4,20 cents,1,1.403117868,win,early
808_HV,118,slots visible: 4,10 cents,0,1.257594308,loss,early
808_HV,119,slots visible: 5,40 cents,1,1.505892372,win,early
808_HV,120,slots visible: 2,10 cents,0,1.470703827,win,early
808_HV,121,slots visible: 4,30 cents,1,1.391322861,loss,early
808_HV,122,slots visible: 1,50 cents,1,0.413667159,loss,early
808_HV,123,slots visible: 2,20 cents,1,0.23789657,win,early
808_HV,124,slots visible: 3,40 cents,1,0.590257668,loss,early
808_HV,125,slots visible: 5,10 cents,0,0.480660171,win,early
808_HV,126,slots visible: 5,50 cents,1,0.801128534,win,early
808_HV,127,slots visible: 0,10 cents,1,0.551679473,win,late
808_HV,128,slots visible: 4,30 cents,1,0.791789476,loss,early
808_HV,129,slots visible: 5,40 cents,1,0.840413162,loss,early
808_HV,130,slots visible: 5,40 cents,1,0.550649001,loss,early
808_HV,131,slots visible: 0,20 cents,1,0.534996321,loss,late
808_HV,132,slots visible: 2,30 cents,0,0.661313333,loss,late
808_HV,133,slots visible: 4,40 cents,1,0.647616322,loss,early
808_HV,134,slots visible: 1,40 cents,0,0.712049575,loss,late
808_HV,135,slots visible: 0,10 cents,1,0.622277379,loss,late
808_HV,136,slots visible: 4,40 cents,1,0.53092927,win,late
808_HV,137,slots visible: 1,50 cents,1,1.313096411,win,late
808_HV,138,slots visible: 2,10 cents,0,0.936206026,win,late
808_HV,139,slots visible: 2,50 cents,1,0.707772558,loss,late
808_HV,140,slots visible: 5,50 cents,1,0.744231159,win,early
808_HV,141,slots visible: 4,10 cents,0,1.08645058,win,early
808_HV,142,slots visible: 4,30 cents,1,1.191032956,win,late
808_HV,143,slots visible: 3,50 cents,1,1.649545305,win,late
808_HV,144,slots visible: 4,40 cents,1,1.151904629,win,late
808_HV,145,slots visible: 4,50 cents,1,0.700190347,win,late
808_HV,146,slots visible: 2,50 cents,1,1.200552655,win,early
808_HV,147,slots visible: 5,30 cents,1,0.87930044,loss,early
808_HV,148,slots visible: 2,50 cents,1,0.855175249,win,late
808_HV,149,slots visible: 2,50 cents,1,1.099617693,loss,late
808_HV,150,slots visible: 3,40 cents,1,1.059986446,loss,late
808_HV,151,slots visible: 2,10 cents,0,0.847383952,loss,late
808_HV,152,slots visible: 5,30 cents,1,1.006625931,loss,early
808_HV,153,slots visible: 0,20 cents,1,0.823100994,loss,late
808_HV,154,slots visible: 1,20 cents,0,0.777426793,win,late
808_HV,155,slots visible: 3,20 cents,0,0.670168826,win,late
808_HV,156,slots visible: 0,40 cents,1,0.384214831,loss,late
808_HV,157,slots visible: 5,20 cents,1,0.458881254,loss,early
808_HV,158,slots visible: 0,40 cents,0,0.319093032,loss,late
808_HV,159,slots visible: 3,20 cents,1,0.858349362,loss,early
808_HV,160,slots visible: 2,40 cents,1,0.28795453,loss,early
808_HV,161,slots visible: 1,10 cents,0,0.81409096,win,early
808_HV,162,slots visible: 2,30 cents,1,0.750524253,loss,late
808_HV,163,slots visible: 5,10 cents,0,1.910772364,loss,early
808_HV,164,slots visible: 4,50 cents,1,0.801062847,win,late
808_HV,165,slots visible: 3,10 cents,0,0.855557937,loss,early
808_HV,166,slots visible: 1,50 cents,1,0.405228371,loss,early
808_HV,167,slots visible: 3,30 cents,1,0.796497861,loss,late
808_HV,168,slots visible: 1,30 cents,1,0.198700209,win,early
808_HV,169,slots visible: 0,30 cents,1,0.341009482,loss,late
808_HV,170,slots visible: 4,50 cents,1,0.183634904,loss,early
808_HV,171,slots visible: 4,20 cents,0,1.091763641,loss,late
808_HV,172,slots visible: 0,50 cents,1,0.395428328,win,late
808_HV,173,slots visible: 1,20 cents,1,0.828622847,loss,early
808_HV,174,slots visible: 5,30 cents,1,1.054730568,win,early
808_HV,175,slots visible: 0,20 cents,1,0.609284162,win,late
808_HV,176,slots visible: 2,50 cents,1,0.357422846,win,early
808_HV,177,slots visible: 4,40 cents,1,0.324115191,win,early
808_HV,178,slots visible: 0,10 cents,1,0.272141151,loss,late
808_HV,179,slots visible: 3,50 cents,1,0.882727332,loss,late
808_HV,180,slots visible: 3,10 cents,1,0.325089067,loss,late
809_AA,1,slots visible: 4,50 cents,1,2.338932702,loss,early
809_AA,2,slots visible: 4,40 cents,1,2.246023049,win,late
809_AA,3,slots visible: 5,10 cents,1,1.857955237,win,early
809_AA,4,slots visible: 2,10 cents,0,2.252982695,win,late
809_AA,5,slots visible: 5,20 cents,1,2.217553101,win,early
809_AA,6,slots visible: 0,50 cents,1,3.277815493,win,late
809_AA,7,slots visible: 3,10 cents,1,2.638234156,win,early
809_AA,8,slots visible: 3,30 cents,1,2.25480347,win,late
809_AA,9,slots visible: 4,30 cents,1,2.138978272,win,early
809_AA,10,slots visible: 0,30 cents,0,2.289468861,win,late
809_AA,11,slots visible: 2,20 cents,0,2.255994935,loss,early
809_AA,12,slots visible: 2,50 cents,0,2.316366122,win,early
809_AA,13,slots visible: 5,20 cents,1,2.060610184,win,early
809_AA,14,slots visible: 0,50 cents,1,2.577252721,loss,late
809_AA,15,slots visible: 2,10 cents,0,2.167647336,loss,late
809_AA,16,slots visible: 1,10 cents,0,1.645913726,win,early
809_AA,17,slots visible: 0,30 cents,1,1.958501059,win,late
809_AA,18,slots visible: 5,40 cents,1,2.284860474,loss,early
809_AA,19,slots visible: 3,10 cents,1,2.245354444,loss,late
809_AA,20,slots visible: 4,40 cents,1,2.379608204,win,early
809_AA,21,slots visible: 1,30 cents,0,2.064185459,loss,late
809_AA,22,slots visible: 5,20 cents,1,2.310569202,win,early
809_AA,23,slots visible: 5,40 cents,1,2.230860972,loss,early
809_AA,24,slots visible: 0,50 cents,1,2.097405433,win,late
809_AA,25,slots visible: 2,30 cents,0,2.289637185,loss,late
809_AA,26,slots visible: 0,20 cents,1,1.920277401,win,late
809_AA,27,slots visible: 0,40 cents,1,2.152562677,loss,late
809_AA,28,slots visible: 0,20 cents,1,1.526967787,loss,late
809_AA,29,slots visible: 0,10 cents,1,1.385461133,win,late
809_AA,30,slots visible: 4,50 cents,1,2.469868071,win,late
809_AA,31,slots visible: 4,30 cents,1,1.376294212,win,late
809_AA,32,slots visible: 1,10 cents,0,3.804520823,loss,late
809_AA,33,slots visible: 2,20 cents,0,1.85114544,win,late
809_AA,34,slots visible: 5,30 cents,1,2.569630921,win,early
809_AA,35,slots visible: 4,50 cents,1,1.913950582,loss,early
809_AA,36,slots visible: 0,20 cents,1,2.047779719,win,late
809_AA,37,slots visible: 2,40 cents,0,2.06275705,win,early
809_AA,38,slots visible: 1,30 cents,0,1.922751824,win,early
809_AA,39,slots visible: 1,20 cents,0,2.063899836,win,late
809_AA,40,slots visible: 5,50 cents,1,1.620170101,win,early
809_AA,41,slots visible: 3,10 cents,1,2.128385288,loss,late
809_AA,42,slots visible: 2,10 cents,0,1.593072845,win,early
809_AA,43,slots visible: 5,30 cents,1,0.899700213,win,early
809_AA,44,slots visible: 0,40 cents,1,1.16792944,win,late
809_AA,45,slots visible: 0,10 cents,1,1.786313663,win,late
809_AA,46,slots visible: 1,10 cents,0,2.286392693,win,late
809_AA,47,slots visible: 5,10 cents,1,1.341068424,loss,early
809_AA,48,slots visible: 1,10 cents,0,1.121457605,loss,early
809_AA,49,slots visible: 3,30 cents,1,2.167701586,loss,late
809_AA,50,slots visible: 2,40 cents,1,4.158326752,loss,late
809_AA,51,slots visible: 5,10 cents,1,0.926772836,loss,early
809_AA,52,slots visible: 0,50 cents,1,0.743366665,win,late
809_AA,53,slots visible: 2,20 cents,0,2.947387559,win,early
809_AA,54,slots visible: 2,30 cents,0,1.181950783,win,early
809_AA,55,slots visible: 2,30 cents,0,0.872456626,win,early
809_AA,56,slots visible: 5,40 cents,1,1.000736931,win,early
809_AA,57,slots visible: 3,30 cents,0,3.563002645,win,early
809_AA,58,slots visible: 5,50 cents,1,0.771655386,win,early
809_AA,59,slots visible: 1,50 cents,0,2.418091386,loss,early
809_AA,60,slots visible: 1,20 cents,0,2.198399337,loss,late
809_AA,61,slots visible: 2,40 cents,0,2.15234538,loss,early
809_AA,62,slots visible: 2,20 cents,0,2.188890489,loss,late
809_AA,63,slots visible: 5,10 cents,1,0.751189926,loss,early
809_AA,64,slots visible: 3,10 cents,1,0.957684071,win,late
809_AA,65,slots visible: 5,40 cents,1,0.762164719,win,early
809_AA,66,slots visible: 3,50 cents,1,0.994474628,win,early
809_AA,67,slots visible: 3,10 cents,1,2.836605342,loss,early
809_AA,68,slots visible: 4,20 cents,1,0.8612748,win,early
809_AA,69,slots visible: 2,10 cents,0,0.99949884,win,late
809_AA,70,slots visible: 1,30 cents,0,1.910040125,win,early
809_AA,71,slots visible: 0,20 cents,1,1.426195871,loss,late
809_AA,72,slots visible: 0,50 cents,1,0.850676244,loss,late
809_AA,73,slots visible: 3,20 cents,1,0.951270745,loss,late
809_AA,74,slots visible: 1,50 cents,0,0.897452763,win,late
809_AA,75,slots visible: 0,20 cents,1,0.739760012,loss,late
809_AA,76,slots visible: 5,40 cents,1,0.4383504,win,early
809_AA,77,slots visible: 0,10 cents,1,0.810512752,loss,late
809_AA,78,slots visible: 1,20 cents,0,0.779234371,loss,early
809_AA,79,slots visible: 0,10 cents,1,0.8370892,win,late
809_AA,80,slots visible: 0,40 cents,1,0.909670926,loss,late
809_AA,81,slots visible: 3,50 cents,1,0.726276778,win,late
809_AA,82,slots visible: 2,50 cents,0,0.886371521,loss,early
809_AA,83,slots visible: 2,10 cents,1,0.844635635,loss,early
809_AA,84,slots visible: 2,50 cents,0,1.217059272,win,late
809_AA,85,slots visible: 5,40 cents,1,0.979861511,loss,early
809_AA,86,slots visible: 4,40 cents,1,0.783943049,win,early
809_AA,87,slots visible: 5,30 cents,1,0.676593295,loss,early
809_AA,88,slots visible: 3,30 cents,1,0.726643631,win,late
809_AA,89,slots visible: 1,40 cents,0,0.797255613,loss,early
809_AA,90,slots visible: 1,50 cents,0,1.08123869,win,late
809_AA,91,slots visible: 5,10 cents,1,0.711791517,win,early
809_AA,92,slots visible: 3,20 cents,1,1.096322469,loss,early
809_AA,93,slots visible: 4,20 cents,1,0.770640163,loss,early
809_AA,94,slots visible: 3,40 cents,1,2.269093135,loss,early
809_AA,95,slots visible: 4,10 cents,1,0.719620936,win,early
809_AA,96,slots visible: 0,30 cents,1,0.677687695,loss,late
809_AA,97,slots visible: 3,20 cents,1,0.804147226,win,early
809_AA,98,slots visible: 4,10 cents,1,0.746698251,win,late
809_AA,99,slots visible: 1,40 cents,0,0.920834864,win,late
809_AA,100,slots visible: 2,40 cents,0,1.041171384,win,late
809_AA,101,slots visible: 1,10 cents,0,0.913600152,loss,early
809_AA,102,slots visible: 4,10 cents,1,0.86990156,loss,late
809_AA,103,slots visible: 1,20 cents,0,1.030241164,win,late
809_AA,104,slots visible: 0,30 cents,1,0.821735047,win,late
809_AA,105,slots visible: 3,50 cents,1,1.081031364,win,early
809_AA,106,slots visible: 4,20 cents,1,0.753637664,loss,late
809_AA,107,slots visible: 3,10 cents,1,0.799641475,win,early
809_AA,108,slots visible: 0,20 cents,1,0.716202842,win,late
809_AA,109,slots visible: 1,30 cents,0,0.956401699,win,late
809_AA,110,slots visible: 2,20 cents,0,1.644878269,win,late
809_AA,111,slots visible: 4,20 cents,1,0.724188269,win,early
809_AA,112,slots visible: 3,50 cents,1,0.795748906,loss,late
809_AA,113,slots visible: 2,50 cents,0,1.317843797,loss,late
809_AA,114,slots visible: 5,20 cents,1,0.574487103,loss,early
809_AA,115,slots visible: 5,50 cents,1,0.64501111,loss,early
809_AA,116,slots visible: 3,40 cents,1,0.731360226,win,early
809_AA,117,slots visible: 4,40 cents,1,0.919334316,loss,late
809_AA,118,slots visible: 4,30 cents,1,0.543926299,loss,late
809_AA,119,slots visible: 1,40 cents,0,0.852075622,win,early
809_AA,120,slots visible: 2,30 cents,0,1.734970398,loss,early
809_AA,121,slots visible: 5,30 cents,1,0.847675147,loss,early
809_AA,122,slots visible: 4,10 cents,1,0.568318052,loss,late
809_AA,123,slots visible: 1,40 cents,0,0.782110544,win,early
809_AA,124,slots visible: 3,40 cents,1,0.86686586,loss,early
809_AA,125,slots visible: 4,20 cents,1,0.781273616,loss,late
809_AA,126,slots visible: 1,50 cents,0,0.892041171,loss,early
809_AA,127,slots visible: 4,40 cents,1,0.840062732,loss,early
809_AA,128,slots visible: 3,50 cents,1,1.494495008,loss,early
809_AA,129,slots visible: 1,40 cents,0,0.794948927,loss,late
809_AA,130,slots visible: 4,50 cents,1,0.59718623,win,late
809_AA,131,slots visible: 5,20 cents,1,0.605695104,loss,early
809_AA,132,slots visible: 1,30 cents,0,0.790106235,loss,early
809_AA,133,slots visible: 3,20 cents,1,0.732342313,loss,late
809_AA,134,slots visible: 2,40 cents,0,0.85931268,win,late
809_AA,135,slots visible: 3,30 cents,1,0.759187669,loss,early
809_AA,136,slots visible: 1,10 cents,0,0.799508341,win,late
809_AA,137,slots visible: 4,10 cents,1,0.687759579,win,early
809_AA,138,slots visible: 5,10 cents,1,0.500103956,win,early
809_AA,139,slots visible: 4,20 cents,1,0.640610635,win,late
809_AA,140,slots visible: 1,20 cents,0,1.744891846,loss,early
809_AA,141,slots visible: 3,40 cents,1,0.737368577,win,late
809_AA,142,slots visible: 2,50 cents,0,1.37962052,win,early
809_AA,143,slots visible: 2,10 cents,0,0.78614006,loss,early
809_AA,144,slots visible: 2,20 cents,0,0.742177546,loss,early
809_AA,145,slots visible: 1,30 cents,0,1.096607213,loss,late
809_AA,146,slots visible: 4,30 cents,1,0.578930391,loss,early
809_AA,147,slots visible: 4,30 cents,1,0.571586004,loss,early
809_AA,148,slots visible: 4,40 cents,1,0.513682495,loss,late
809_AA,149,slots visible: 5,30 cents,1,0.598275059,win,early
809_AA,150,slots visible: 3,20 cents,1,0.718455863,win,early
809_AA,151,slots visible: 3,20 cents,1,0.803079218,win,late
809_AA,152,slots visible: 1,20 cents,0,0.739338029,win,early
809_AA,153,slots visible: 3,40 cents,1,0.933807554,win,late
809_AA,154,slots visible: 0,40 cents,1,0.86805234,loss,late
809_AA,155,slots visible: 1,50 cents,0,0.782433997,win,early
809_AA,156,slots visible: 5,50 cents,1,0.536066675,win,early
809_AA,157,slots visible: 4,30 cents,1,0.661969035,win,late
809_AA,158,slots visible: 2,50 cents,0,0.740459408,loss,late
809_AA,159,slots visible: 4,50 cents,1,0.647160615,win,early
809_AA,160,slots visible: 5,30 cents,1,0.558220949,loss,early
809_AA,161,slots visible: 2,30 cents,0,0.808784057,win,late
809_AA,162,slots visible: 1,40 cents,0,0.665089776,loss,late
809_AA,163,slots visible: 0,30 cents,1,0.625357066,loss,late
809_AA,164,slots visible: 3,50 cents,1,0.869680744,loss,late
809_AA,165,slots visible: 0,10 cents,1,0.608129939,loss,late
809_AA,166,slots visible: 2,30 cents,0,0.8367722,loss,late
809_AA,167,slots visible: 4,10 cents,1,0.588967085,loss,early
809_AA,168,slots visible: 1,50 cents,0,0.799090463,loss,late
809_AA,169,slots visible: 4,50 cents,1,0.505683286,loss,late
809_AA,170,slots visible: 0,40 cents,1,0.534063207,win,late
809_AA,171,slots visible: 0,10 cents,1,0.618511493,loss,late
809_AA,172,slots visible: 0,50 cents,1,0.686602131,loss,late
809_AA,173,slots visible: 5,50 cents,1,0.499383447,loss,early
809_AA,174,slots visible: 2,40 cents,0,0.917253431,loss,early
809_AA,175,slots visible: 5,20 cents,1,0.56770751,loss,early
809_AA,176,slots visible: 3,30 cents,1,0.856055872,loss,early
809_AA,177,slots visible: 0,40 cents,1,0.544524524,win,late
809_AA,178,slots visible: 0,30 cents,1,0.740832712,loss,late
809_AA,179,slots visible: 5,50 cents,1,0.635338336,loss,early
809_AA,180,slots visible: 3,40 cents,1,0.721581297,loss,late
810_JC,1,slots visible: 4,20 cents,1,2.070526526,win,early
810_JC,2,slots visible: 3,50 cents,0,2.112149853,win,late
810_JC,3,slots visible: 5,40 cents,1,2.324384836,win,early
810_JC,4,slots visible: 4,10 cents,1,2.178906116,win,early
810_JC,5,slots visible: 5,30 cents,1,2.327017891,loss,early
810_JC,6,slots visible: 5,20 cents,1,2.169291755,win,early
810_JC,7,slots visible: 2,40 cents,0,2.245710179,loss,late
810_JC,8,slots visible: 3,10 cents,1,1.819876033,loss,late
810_JC,9,slots visible: 1,40 cents,0,3.360401888,loss,late
810_JC,10,slots visible: 1,30 cents,1,2.448912893,loss,late
810_JC,11,slots visible: 1,20 cents,1,2.271406146,loss,early
810_JC,12,slots visible: 4,30 cents,1,2.279542548,loss,late
810_JC,13,slots visible: 0,20 cents,1,2.549976291,win,late
810_JC,14,slots visible: 0,20 cents,1,3.728368934,win,late
810_JC,15,slots visible: 5,50 cents,1,2.872879355,loss,early
810_JC,16,slots visible: 0,50 cents,1,2.403357725,win,late
810_JC,17,slots visible: 3,10 cents,1,2.131736922,loss,early
810_JC,18,slots visible: 0,30 cents,0,2.728070116,loss,late
810_JC,19,slots visible: 5,20 cents,1,0.965004324,loss,early
810_JC,20,slots visible: 0,30 cents,1,4.539371932,win,late
810_JC,21,slots visible: 0,50 cents,99,5,loss,late
810_JC,22,slots visible: 0,50 cents,1,2.45225795,win,late
810_JC,23,slots visible: 5,30 cents,1,1.224711131,loss,early
810_JC,24,slots visible: 1,30 cents,1,2.288143451,win,early
810_JC,25,slots visible: 5,30 cents,1,2.351374898,win,early
810_JC,26,slots visible: 5,40 cents,1,2.407823567,win,early
810_JC,27,slots visible: 3,30 cents,0,2.376131013,loss,late
810_JC,28,slots visible: 4,40 cents,1,2.406493403,loss,early
810_JC,29,slots visible: 1,20 cents,1,2.365197338,loss,early
810_JC,30,slots visible: 2,50 cents,1,2.421312,loss,late
810_JC,31,slots visible: 2,10 cents,0,2.11388411,win,late
810_JC,32,slots visible: 2,40 cents,1,2.506172094,loss,late
810_JC,33,slots visible: 2,20 cents,0,2.811861622,loss,early
810_JC,34,slots visible: 4,20 cents,1,2.248251155,win,late
810_JC,35,slots visible: 2,20 cents,1,2.373742525,win,late
810_JC,36,slots visible: 5,40 cents,1,2.579875353,loss,early
810_JC,37,slots visible: 3,40 cents,0,2.528395443,win,late
810_JC,38,slots visible: 1,40 cents,0,2.030838915,loss,early
810_JC,39,slots visible: 4,40 cents,1,1.289268049,loss,late
810_JC,40,slots visible: 1,10 cents,1,2.063638179,win,late
810_JC,41,slots visible: 5,20 cents,1,1.076214324,loss,early
810_JC,42,slots visible: 4,20 cents,1,2.402226968,win,early
810_JC,43,slots visible: 1,20 cents,0,2.393008782,win,early
810_JC,44,slots visible: 1,10 cents,1,2.035325285,loss,late
810_JC,45,slots visible: 5,10 cents,1,2.205663048,loss,early
810_JC,46,slots visible: 3,40 cents,1,2.508155609,loss,early
810_JC,47,slots visible: 0,40 cents,0,3.918670294,loss,late
810_JC,48,slots visible: 2,50 cents,1,3.982875904,win,late
810_JC,49,slots visible: 2,20 cents,1,3.353562806,win,late
810_JC,50,slots visible: 4,10 cents,1,2.809978983,loss,early
810_JC,51,slots visible: 0,40 cents,1,2.512429375,loss,late
810_JC,52,slots visible: 3,40 cents,1,4.345049877,win,late
810_JC,53,slots visible: 2,20 cents,0,3.253199973,loss,early
810_JC,54,slots visible: 2,30 cents,1,2.489767916,loss,late
810_JC,55,slots visible: 3,20 cents,1,2.096333634,win,late
810_JC,56,slots visible: 2,10 cents,1,2.478838641,win,early
810_JC,57,slots visible: 4,10 cents,1,2.44712468,loss,late
810_JC,58,slots visible: 2,10 cents,0,2.919696361,loss,late
810_JC,59,slots visible: 1,30 cents,1,2.703960609,win,late
810_JC,60,slots visible: 1,30 cents,1,3.279843418,loss,early
810_JC,61,slots visible: 2,10 cents,1,2.271323451,loss,early
810_JC,62,slots visible: 3,50 cents,1,2.417546429,win,early
810_JC,63,slots visible: 4,30 cents,1,4.883994549,win,early
810_JC,64,slots visible: 2,30 cents,0,2.330502533,loss,early
810_JC,65,slots visible: 3,50 cents,1,2.177000018,loss,early
810_JC,66,slots visible: 4,30 cents,1,2.295306863,win,early
810_JC,67,slots visible: 2,40 cents,0,2.411811711,win,early
810_JC,68,slots visible: 3,30 cents,1,1.938260882,win,early
810_JC,69,slots visible: 0,40 cents,1,2.546778151,win,late
810_JC,70,slots visible: 5,50 cents,1,2.540980972,win,early
810_JC,71,slots visible: 1,40 cents,0,2.305584839,loss,early
810_JC,72,slots visible: 2,30 cents,1,2.507854739,win,late
810_JC,73,slots visible: 4,30 cents,1,2.398443216,win,late
810_JC,74,slots visible: 3,50 cents,0,2.382656321,loss,early
810_JC,75,slots visible: 0,50 cents,0,2.937388182,win,late
810_JC,76,slots visible: 2,50 cents,1,2.31153304,loss,early
810_JC,77,slots visible: 5,50 cents,1,2.424178186,loss,early
810_JC,78,slots visible: 3,40 cents,1,2.394472666,loss,early
810_JC,79,slots visible: 4,50 cents,1,2.676997819,win,late
810_JC,80,slots visible: 1,30 cents,1,2.253117571,win,early
810_JC,81,slots visible: 4,30 cents,1,2.217820145,loss,early
810_JC,82,slots visible: 4,20 cents,1,2.260293299,loss,late
810_JC,83,slots visible: 5,10 cents,1,2.128703879,win,early
810_JC,84,slots visible: 3,10 cents,1,2.517083775,win,late
810_JC,85,slots visible: 1,10 cents,0,2.493359299,win,early
810_JC,86,slots visible: 3,20 cents,1,2.169724293,loss,early
810_JC,87,slots visible: 5,50 cents,1,2.624312082,win,early
810_JC,88,slots visible: 4,20 cents,1,2.314950235,loss,early
810_JC,89,slots visible: 2,40 cents,0,2.554976721,win,late
810_JC,90,slots visible: 2,20 cents,1,2.107432993,win,late
810_JC,91,slots visible: 5,20 cents,1,2.254079711,loss,early
810_JC,92,slots visible: 2,30 cents,1,2.730691442,win,early
810_JC,93,slots visible: 0,30 cents,0,2.855075808,win,late
810_JC,94,slots visible: 3,30 cents,1,2.283498142,loss,early
810_JC,95,slots visible: 4,40 cents,1,2.21784771,win,late
810_JC,96,slots visible: 2,30 cents,0,2.942017948,loss,early
810_JC,97,slots visible: 3,50 cents,1,3.02683992,win,late
810_JC,98,slots visible: 2,20 cents,0,2.365104673,loss,early
810_JC,99,slots visible: 0,20 cents,0,2.619453876,loss,late
810_JC,100,slots visible: 0,20 cents,1,2.390313852,win,late
810_JC,101,slots visible: 1,30 cents,0,2.240273106,loss,late
810_JC,102,slots visible: 5,40 cents,1,2.320978198,win,early
810_JC,103,slots visible: 1,20 cents,0,2.161239222,win,late
810_JC,104,slots visible: 3,30 cents,1,2.432160926,win,late
810_JC,105,slots visible: 4,40 cents,0,2.778233938,win,early
810_JC,106,slots visible: 3,10 cents,1,2.142387614,win,early
810_JC,107,slots visible: 1,10 cents,1,2.115149173,loss,early
810_JC,108,slots visible: 1,20 cents,0,2.305407719,loss,late
810_JC,109,slots visible: 5,20 cents,1,2.229661709,win,early
810_JC,110,slots visible: 5,30 cents,1,2.310298768,win,early
810_JC,111,slots visible: 0,10 cents,1,2.170667959,win,late
810_JC,112,slots visible: 4,50 cents,0,2.289031693,win,late
810_JC,113,slots visible: 0,40 cents,1,2.895624976,win,late
810_JC,114,slots visible: 3,10 cents,1,2.165925585,loss,late
810_JC,115,slots visible: 3,20 cents,0,2.876511206,win,late
810_JC,116,slots visible: 0,30 cents,0,2.892786062,win,late
810_JC,117,slots visible: 2,50 cents,0,2.297321169,loss,early
810_JC,118,slots visible: 4,40 cents,1,2.231493616,loss,early
810_JC,119,slots visible: 0,20 cents,1,2.32202274,loss,late
810_JC,120,slots visible: 1,50 cents,1,2.996250851,win,early
810_JC,121,slots visible: 0,40 cents,1,3.009185049,loss,late
810_JC,122,slots visible: 1,40 cents,0,3.055573916,win,late
810_JC,123,slots visible: 5,50 cents,1,2.364133149,loss,early
810_JC,124,slots visible: 3,30 cents,1,2.37243758,loss,late
810_JC,125,slots visible: 2,40 cents,1,2.243116418,win,early
810_JC,126,slots visible: 5,10 cents,1,2.083374217,win,early
810_JC,127,slots visible: 0,10 cents,1,2.131848062,loss,late
810_JC,128,slots visible: 3,40 cents,1,2.200225682,win,early
810_JC,129,slots visible: 1,50 cents,0,2.236740959,loss,early
810_JC,130,slots visible: 4,20 cents,1,2.18911694,loss,late
810_JC,131,slots visible: 0,20 cents,1,2.293513371,loss,late
810_JC,132,slots visible: 1,50 cents,0,2.515877948,win,early
810_JC,133,slots visible: 2,10 cents,1,2.140295891,win,late
810_JC,134,slots visible: 1,40 cents,1,3.606732575,win,late
810_JC,135,slots visible: 1,10 cents,1,2.044977181,loss,late
810_JC,136,slots visible: 0,10 cents,1,2.743884869,loss,late
810_JC,137,slots visible: 4,50 cents,0,2.922326777,loss,early
810_JC,138,slots visible: 5,30 cents,1,2.088483147,win,early
810_JC,139,slots visible: 3,10 cents,1,1.940188974,win,early
810_JC,140,slots visible: 4,40 cents,1,2.169570339,win,late
810_JC,141,slots visible: 0,30 cents,0,2.973805514,loss,late
810_JC,142,slots visible: 3,20 cents,1,2.058031024,win,early
810_JC,143,slots visible: 2,50 cents,0,2.173748214,win,late
810_JC,144,slots visible: 0,10 cents,1,1.771103957,win,late
810_JC,145,slots visible: 3,20 cents,1,2.12766051,loss,early
810_JC,146,slots visible: 5,30 cents,1,2.234127258,loss,early
810_JC,147,slots visible: 5,10 cents,1,2.106286108,loss,early
810_JC,148,slots visible: 2,50 cents,0,2.309757729,win,early
810_JC,149,slots visible: 1,40 cents,1,2.6312277,win,early
810_JC,150,slots visible: 5,20 cents,1,2.199823349,win,early
810_JC,151,slots visible: 2,10 cents,1,2.160265352,loss,early
810_JC,152,slots visible: 1,50 cents,0,2.256426265,loss,late
810_JC,153,slots visible: 1,10 cents,1,1.965159158,win,early
810_JC,154,slots visible: 3,30 cents,1,2.433364701,win,early
810_JC,155,slots visible: 0,40 cents,0,2.265856467,win,late
810_JC,156,slots visible: 2,30 cents,1,2.790318896,win,late
810_JC,157,slots visible: 0,50 cents,0,2.448395314,loss,late
810_JC,158,slots visible: 4,50 cents,1,2.351072268,loss,late
810_JC,159,slots visible: 0,50 cents,0,2.241573652,loss,late
810_JC,160,slots visible: 1,50 cents,1,2.98290171,loss,late
810_JC,161,slots visible: 5,10 cents,1,2.154237976,loss,early
810_JC,162,slots visible: 0,10 cents,1,2.164735593,loss,late
810_JC,163,slots visible: 5,40 cents,1,2.38916814,loss,early
810_JC,164,slots visible: 4,50 cents,0,2.479531874,win,early
810_JC,165,slots visible: 3,40 cents,1,2.262174178,loss,late
810_JC,166,slots visible: 4,50 cents,1,2.258375764,loss,early
810_JC,167,slots visible: 4,10 cents,1,2.046806449,win,early
810_JC,168,slots visible: 4,10 cents,1,1.843242162,win,late
810_JC,169,slots visible: 2,40 cents,1,2.29084366,loss,early
810_JC,170,slots visible: 0,30 cents,1,2.050051802,loss,late
810_JC,171,slots visible: 1,20 cents,1,3.894493633,win,late
810_JC,172,slots visible: 5,10 cents,1,2.156827044,win,early
810_JC,173,slots visible: 3,50 cents,0,2.253471225,loss,late
810_JC,174,slots visible: 4,30 cents,1,2.291674132,loss,late
810_JC,175,slots visible: 3,20 cents,0,2.231323533,loss,late
810_JC,176,slots visible: 0,10 cents,1,2.072667808,win,late
810_JC,177,slots visible: 5,40 cents,1,2.296237625,loss,early
810_JC,178,slots visible: 1,50 cents,1,3.405415431,win,late
810_JC,179,slots visible: 4,10 cents,1,2.108067284,loss,late
810_JC,180,slots visible: 5,50 cents,1,2.334439359,win,early
811_HS,1,slots visible: 4,30 cents,1,1.744365206,win,late
811_HS,2,slots visible: 0,20 cents,1,2.186098266,loss,late
811_HS,3,slots visible: 2,40 cents,1,4.079129775,win,early
811_HS,4,slots visible: 2,10 cents,0,2.805696419,loss,late
811_HS,5,slots visible: 4,50 cents,1,1.419988581,win,late
811_HS,6,slots visible: 0,50 cents,1,2.682355422,loss,late
811_HS,7,slots visible: 4,20 cents,1,2.210851742,win,late
811_HS,8,slots visible: 3,50 cents,1,1.504975357,win,late
811_HS,9,slots visible: 5,50 cents,1,2.273740677,win,early
811_HS,10,slots visible: 3,30 cents,1,1.844057386,win,early
