subject_num,trial_num,information,stake,decision,reaction_time,outcome,early_late
02_JH,1,slots visible: 4,40 cents,1,2.269312754,win,NA
02_JH,2,slots visible: 2,30 cents,1,3.215892299,loss,NA
02_JH,3,slots visible: 5,40 cents,1,2.148747682,win,NA
02_JH,4,slots visible: 2,10 cents,1,3.854863631,win,NA
02_JH,5,slots visible: 3,20 cents,1,1.979744976,win,NA
02_JH,6,slots visible: 5,40 cents,1,2.112050994,loss,NA
02_JH,7,slots visible: 0,10 cents,1,2.833680193,loss,NA
02_JH,8,slots visible: 0,50 cents,1,2.533122471,loss,NA
02_JH,9,slots visible: 5,40 cents,1,2.417414124,loss,NA
02_JH,10,slots visible: 5,30 cents,1,2.799684586,loss,NA
02_JH,11,slots visible: 0,40 cents,0,3.568473457,loss,NA
02_JH,12,slots visible: 3,20 cents,1,1.956807934,loss,NA
02_JH,13,slots visible: 2,40 cents,1,2.365092165,win,NA
02_JH,14,slots visible: 1,50 cents,1,2.969238006,loss,NA
02_JH,15,slots visible: 0,10 cents,1,1.951223961,win,NA
02_JH,16,slots visible: 3,40 cents,1,3.506696984,win,NA
02_JH,17,slots visible: 2,30 cents,1,2.671067591,win,NA
02_JH,18,slots visible: 2,20 cents,1,3.600351835,win,NA
02_JH,19,slots visible: 3,30 cents,1,2.318935391,loss,NA
02_JH,20,slots visible: 4,50 cents,1,3.424976035,win,NA
02_JH,21,slots visible: 4,10 cents,1,2.572813484,loss,NA
02_JH,22,slots visible: 1,50 cents,1,3.75318794,win,NA
02_JH,23,slots visible: 4,30 cents,1,2.716133493,win,NA
02_JH,24,slots visible: 5,10 cents,1,1.902110983,win,NA
02_JH,25,slots visible: 1,50 cents,1,3.250584657,win,NA
02_JH,26,slots visible: 2,10 cents,1,2.443120867,win,NA
02_JH,27,slots visible: 0,40 cents,0,4.38744917,win,NA
02_JH,28,slots visible: 0,40 cents,1,3.1021094,win,NA
02_JH,29,slots visible: 0,20 cents,1,2.946597433,win,NA
02_JH,30,slots visible: 5,30 cents,1,2.329735314,win,NA
02_JH,31,slots visible: 2,10 cents,1,2.179375077,win,NA
02_JH,32,slots visible: 4,10 cents,1,2.031777209,loss,NA
02_JH,33,slots visible: 0,50 cents,1,3.871972721,win,NA
02_JH,34,slots visible: 1,40 cents,0,3.412789356,loss,NA
02_JH,35,slots visible: 2,40 cents,1,2.631516749,win,NA
02_JH,36,slots visible: 2,50 cents,1,2.925472352,win,NA
02_JH,37,slots visible: 4,20 cents,1,2.678285232,win,NA
02_JH,38,slots visible: 0,10 cents,0,2.728561513,win,NA
02_JH,39,slots visible: 5,50 cents,1,3.192088717,loss,NA
02_JH,40,slots visible: 4,20 cents,1,1.859160844,win,NA
02_JH,41,slots visible: 2,30 cents,1,2.030690443,win,NA
02_JH,42,slots visible: 3,30 cents,1,2.480579405,win,NA
02_JH,43,slots visible: 3,30 cents,1,2.240843936,win,NA
02_JH,44,slots visible: 2,20 cents,1,2.009239566,loss,NA
02_JH,45,slots visible: 2,20 cents,1,2.575557671,loss,NA
02_JH,46,slots visible: 1,40 cents,0,2.451885668,loss,NA
02_JH,47,slots visible: 3,20 cents,1,2.756337686,loss,NA
02_JH,48,slots visible: 1,40 cents,1,2.602691345,win,NA
02_JH,49,slots visible: 2,20 cents,1,2.357384512,win,NA
02_JH,50,slots visible: 4,40 cents,1,3.003507211,loss,NA
02_JH,51,slots visible: 2,40 cents,1,2.364241755,loss,NA
02_JH,52,slots visible: 1,10 cents,1,1.777561591,win,NA
02_JH,53,slots visible: 5,20 cents,1,2.863815816,loss,NA
02_JH,54,slots visible: 4,40 cents,1,2.373603604,loss,NA
02_JH,55,slots visible: 2,30 cents,1,2.227542926,loss,NA
02_JH,56,slots visible: 3,20 cents,0,2.071704578,win,NA
02_JH,57,slots visible: 4,50 cents,1,2.44076171,win,NA
02_JH,58,slots visible: 5,30 cents,1,2.784867499,win,NA
02_JH,59,slots visible: 1,50 cents,1,2.859603937,loss,NA
02_JH,60,slots visible: 3,10 cents,1,2.366344615,loss,NA
02_JH,61,slots visible: 1,10 cents,1,2.311097537,loss,NA
02_JH,62,slots visible: 5,20 cents,0,2.02446309,win,NA
02_JH,63,slots visible: 0,50 cents,1,3.364926482,win,NA
02_JH,64,slots visible: 2,30 cents,1,2.333319355,loss,NA
02_JH,65,slots visible: 5,10 cents,0,2.497589672,loss,NA
02_JH,66,slots visible: 3,30 cents,1,2.048323269,loss,NA
02_JH,67,slots visible: 4,10 cents,1,2.0436334,win,NA
02_JH,68,slots visible: 1,10 cents,1,1.788402275,win,NA
02_JH,69,slots visible: 5,30 cents,1,2.104774118,win,NA
02_JH,70,slots visible: 1,20 cents,1,1.900114864,loss,NA
02_JH,71,slots visible: 5,20 cents,1,1.88855397,win,NA
02_JH,72,slots visible: 4,50 cents,1,2.270796281,loss,NA
02_JH,73,slots visible: 1,30 cents,1,2.270946715,win,NA
02_JH,74,slots visible: 4,30 cents,1,2.179509677,loss,NA
02_JH,75,slots visible: 3,10 cents,1,1.800375764,win,NA
02_JH,76,slots visible: 5,20 cents,1,2.232500234,win,NA
02_JH,77,slots visible: 3,50 cents,1,3.170951319,win,NA
02_JH,78,slots visible: 5,50 cents,1,3.471775895,win,NA
02_JH,79,slots visible: 3,50 cents,1,2.274576796,loss,NA
02_JH,80,slots visible: 4,40 cents,1,2.342238697,win,NA
02_JH,81,slots visible: 4,20 cents,1,2.112688802,loss,NA
02_JH,82,slots visible: 1,40 cents,1,2.245215047,win,NA
02_JH,83,slots visible: 3,10 cents,1,1.989453734,win,NA
02_JH,84,slots visible: 0,10 cents,1,2.07775569,loss,NA
02_JH,85,slots visible: 5,10 cents,1,1.775292461,loss,NA
02_JH,86,slots visible: 5,50 cents,1,2.091200976,win,NA
02_JH,87,slots visible: 0,20 cents,1,2.369739807,loss,NA
02_JH,88,slots visible: 0,30 cents,1,2.319194327,loss,NA
02_JH,89,slots visible: 3,40 cents,1,2.242159433,win,NA
02_JH,90,slots visible: 4,20 cents,1,2.016650748,win,NA
02_JH,91,slots visible: 1,20 cents,1,2.294975216,win,NA
02_JH,92,slots visible: 0,40 cents,1,2.357054318,loss,NA
02_JH,93,slots visible: 5,20 cents,1,2.17410429,loss,NA
02_JH,94,slots visible: 1,20 cents,1,2.078779702,win,NA
02_JH,95,slots visible: 2,40 cents,1,2.27257012,loss,NA
02_JH,96,slots visible: 3,10 cents,1,2.001158025,loss,NA
02_JH,97,slots visible: 5,40 cents,1,2.659492035,loss,NA
02_JH,98,slots visible: 3,50 cents,1,2.492625326,loss,NA
02_JH,99,slots visible: 3,10 cents,1,1.850704829,loss,NA
02_JH,100,slots visible: 0,40 cents,0,1.93870093,win,NA
02_JH,101,slots visible: 5,50 cents,1,2.279622664,loss,NA
02_JH,102,slots visible: 5,40 cents,1,2.737508713,win,NA
02_JH,103,slots visible: 1,50 cents,1,2.55816296,loss,NA
02_JH,104,slots visible: 3,40 cents,1,2.077330778,loss,NA
02_JH,105,slots visible: 0,30 cents,1,2.278811255,win,NA
02_JH,106,slots visible: 0,20 cents,1,1.999542538,win,NA
02_JH,107,slots visible: 3,20 cents,1,2.155638062,loss,NA
02_JH,108,slots visible: 1,50 cents,0,2.118159582,win,NA
02_JH,109,slots visible: 1,30 cents,1,2.318430423,loss,NA
02_JH,110,slots visible: 5,50 cents,1,2.24892577,win,NA
02_JH,111,slots visible: 5,30 cents,1,2.221722011,loss,NA
02_JH,112,slots visible: 2,20 cents,1,2.323548136,loss,NA
02_JH,113,slots visible: 2,40 cents,1,2.30666895,win,NA
02_JH,114,slots visible: 2,10 cents,1,2.152772764,loss,NA
02_JH,115,slots visible: 4,20 cents,1,2.121149509,loss,NA
02_JH,116,slots visible: 3,40 cents,1,2.145184755,win,NA
02_JH,117,slots visible: 4,30 cents,1,2.069914903,win,NA
02_JH,118,slots visible: 4,10 cents,1,1.792369881,loss,NA
02_JH,119,slots visible: 0,10 cents,1,1.889859204,win,NA
02_JH,120,slots visible: 3,30 cents,1,2.772371446,loss,NA
02_JH,121,slots visible: 4,50 cents,1,3.453315825,loss,NA
02_JH,122,slots visible: 4,10 cents,1,2.422705438,win,NA
02_JH,123,slots visible: 1,10 cents,1,1.745511078,win,NA
02_JH,124,slots visible: 1,40 cents,1,2.637569913,win,NA
02_JH,125,slots visible: 3,40 cents,1,2.252893669,loss,NA
02_JH,126,slots visible: 4,40 cents,1,2.148155914,loss,NA
02_JH,127,slots visible: 0,50 cents,0,3.117625876,win,NA
02_JH,128,slots visible: 0,30 cents,1,2.061183531,loss,NA
02_JH,129,slots visible: 0,30 cents,1,2.034637521,win,NA
02_JH,130,slots visible: 0,30 cents,1,1.990207961,loss,NA
02_JH,131,slots visible: 0,20 cents,1,2.126723218,loss,NA
02_JH,132,slots visible: 0,20 cents,1,2.349810578,loss,NA
02_JH,133,slots visible: 5,40 cents,1,2.512146944,win,NA
02_JH,134,slots visible: 3,50 cents,1,2.200386673,win,NA
02_JH,135,slots visible: 5,30 cents,1,2.194495086,loss,NA
02_JH,136,slots visible: 5,10 cents,1,1.75324571,loss,NA
02_JH,137,slots visible: 1,10 cents,1,2.041564556,loss,NA
02_JH,138,slots visible: 2,10 cents,1,1.858291079,loss,NA
02_JH,139,slots visible: 2,50 cents,1,2.431833571,win,NA
02_JH,140,slots visible: 3,30 cents,1,2.114139486,win,NA
02_JH,141,slots visible: 1,30 cents,0,3.145511723,loss,NA
02_JH,142,slots visible: 4,30 cents,1,2.061456542,loss,NA
02_JH,143,slots visible: 1,20 cents,1,2.207818383,loss,NA
02_JH,144,slots visible: 1,30 cents,1,2.156172061,win,NA
02_JH,145,slots visible: 1,30 cents,1,2.414364668,win,NA
02_JH,146,slots visible: 0,20 cents,0,3.349260451,win,NA
02_JH,147,slots visible: 2,10 cents,1,1.738255022,loss,NA
02_JH,148,slots visible: 4,30 cents,1,2.095733079,win,NA
02_JH,149,slots visible: 3,50 cents,1,2.453629597,win,NA
02_JH,150,slots visible: 4,20 cents,1,2.546974488,loss,NA
02_JH,151,slots visible: 2,50 cents,1,4.366336404,win,NA
02_JH,152,slots visible: 0,10 cents,1,1.99637813,loss,NA
02_JH,153,slots visible: 0,40 cents,1,2.472029552,loss,NA
02_JH,154,slots visible: 4,10 cents,1,2.002537156,win,NA
02_JH,155,slots visible: 3,10 cents,1,2.994704581,win,NA
02_JH,156,slots visible: 2,20 cents,1,2.227882797,win,NA
02_JH,157,slots visible: 2,30 cents,1,2.158581656,win,NA
02_JH,158,slots visible: 1,20 cents,1,2.157193727,loss,NA
02_JH,159,slots visible: 3,20 cents,1,2.142674284,win,NA
02_JH,160,slots visible: 0,30 cents,1,2.515489938,win,NA
02_JH,161,slots visible: 1,40 cents,1,2.391531728,loss,NA
02_JH,162,slots visible: 1,30 cents,0,1.953580478,loss,NA
02_JH,163,slots visible: 1,20 cents,1,2.156666179,win,NA
02_JH,164,slots visible: 0,50 cents,1,2.503205608,loss,NA
02_JH,165,slots visible: 4,40 cents,0,3.156178806,win,NA
02_JH,166,slots visible: 4,50 cents,1,2.284523962,win,NA
02_JH,167,slots visible: 3,40 cents,1,2.405908947,loss,NA
02_JH,168,slots visible: 4,30 cents,1,2.108236462,loss,NA
02_JH,169,slots visible: 0,50 cents,1,2.830813723,loss,NA
02_JH,170,slots visible: 5,50 cents,1,3.136090639,loss,NA
02_JH,171,slots visible: 2,40 cents,0,2.021696323,loss,NA
02_JH,172,slots visible: 5,10 cents,1,2.120537213,win,NA
02_JH,173,slots visible: 5,10 cents,1,2.417709422,win,NA
02_JH,174,slots visible: 5,20 cents,1,2.191174672,loss,NA
02_JH,175,slots visible: 1,10 cents,1,2.41745987,loss,NA
02_JH,176,slots visible: 3,50 cents,1,2.332163383,loss,NA
02_JH,177,slots visible: 4,50 cents,1,2.210588962,loss,NA
02_JH,178,slots visible: 2,50 cents,1,2.097041245,loss,NA
02_JH,179,slots visible: 2,50 cents,1,2.031403028,loss,NA
02_JH,180,slots visible: 2,50 cents,1,2.250178513,loss,NA
03_KL,1,slots visible: 3,10 cents,1,2.674869513,win,NA
03_KL,2,slots visible: 4,20 cents,1,2.518772523,loss,NA
03_KL,3,slots visible: 0,30 cents,1,3.023183662,win,NA
03_KL,4,slots visible: 1,20 cents,1,3.257532806,win,NA
03_KL,5,slots visible: 3,50 cents,0,2.862199743,loss,NA
03_KL,6,slots visible: 0,40 cents,1,2.463852413,win,NA
03_KL,7,slots visible: 3,10 cents,1,2.077027562,loss,NA
03_KL,8,slots visible: 3,40 cents,1,2.525262916,loss,NA
03_KL,9,slots visible: 0,40 cents,1,2.714601581,win,NA
03_KL,10,slots visible: 2,10 cents,0,1.962988953,loss,NA
03_KL,11,slots visible: 2,20 cents,1,2.180732802,loss,NA
03_KL,12,slots visible: 1,40 cents,1,3.360310218,win,NA
03_KL,13,slots visible: 1,20 cents,0,2.305705347,win,NA
03_KL,14,slots visible: 0,40 cents,0,2.326078548,win,NA
03_KL,15,slots visible: 4,30 cents,1,2.036333651,win,NA
03_KL,16,slots visible: 3,20 cents,1,2.414191947,loss,NA
03_KL,17,slots visible: 4,30 cents,1,2.64448082,loss,NA
03_KL,18,slots visible: 4,10 cents,1,2.09024793,win,NA
03_KL,19,slots visible: 5,50 cents,1,2.514245406,win,NA
03_KL,20,slots visible: 3,50 cents,0,2.810480989,loss,NA
03_KL,21,slots visible: 5,40 cents,1,1.920135292,loss,NA
03_KL,22,slots visible: 1,50 cents,1,2.81648137,loss,NA
03_KL,23,slots visible: 3,50 cents,1,2.829768304,win,NA
03_KL,24,slots visible: 3,30 cents,1,2.45819249,win,NA
03_KL,25,slots visible: 5,30 cents,1,2.622895343,win,NA
03_KL,26,slots visible: 3,30 cents,0,2.706520627,loss,NA
03_KL,27,slots visible: 0,10 cents,1,1.885836175,loss,NA
03_KL,28,slots visible: 0,20 cents,1,2.485080424,loss,NA
03_KL,29,slots visible: 5,40 cents,1,2.502332325,loss,NA
03_KL,30,slots visible: 5,10 cents,1,1.772875828,win,NA
03_KL,31,slots visible: 5,20 cents,1,1.841398697,win,NA
03_KL,32,slots visible: 2,30 cents,0,2.355777822,win,NA
03_KL,33,slots visible: 4,50 cents,1,2.636025978,loss,NA
03_KL,34,slots visible: 5,20 cents,1,2.188660389,loss,NA
03_KL,35,slots visible: 3,40 cents,1,2.557671482,win,NA
03_KL,36,slots visible: 0,20 cents,0,2.365719123,win,NA
03_KL,37,slots visible: 4,20 cents,0,2.670014255,win,NA
03_KL,38,slots visible: 2,30 cents,1,2.621551695,loss,NA
03_KL,39,slots visible: 2,30 cents,1,2.691757497,loss,NA
03_KL,40,slots visible: 2,50 cents,1,2.897220242,win,NA
03_KL,41,slots visible: 2,50 cents,1,1.193000709,loss,NA
03_KL,42,slots visible: 3,30 cents,0,3.008378598,loss,NA
03_KL,43,slots visible: 0,30 cents,1,2.734088596,loss,NA
03_KL,44,slots visible: 0,30 cents,1,2.8076978,loss,NA
03_KL,45,slots visible: 3,40 cents,1,2.500783404,win,NA
03_KL,46,slots visible: 3,50 cents,1,2.517777543,win,NA
03_KL,47,slots visible: 0,30 cents,0,2.152248442,win,NA
03_KL,48,slots visible: 4,10 cents,1,2.418475085,win,NA
03_KL,49,slots visible: 2,50 cents,0,2.558265303,loss,NA
03_KL,50,slots visible: 2,40 cents,1,2.459995068,win,NA
03_KL,51,slots visible: 1,20 cents,0,2.280878339,loss,NA
03_KL,52,slots visible: 4,10 cents,1,2.476319727,loss,NA
03_KL,53,slots visible: 5,30 cents,1,2.906358345,loss,NA
03_KL,54,slots visible: 1,40 cents,1,2.799253222,loss,NA
03_KL,55,slots visible: 5,50 cents,1,2.511666902,loss,NA
03_KL,56,slots visible: 4,40 cents,1,2.161092713,loss,NA
03_KL,57,slots visible: 4,30 cents,0,2.114715712,win,NA
03_KL,58,slots visible: 1,40 cents,1,2.346890151,win,NA
03_KL,59,slots visible: 2,50 cents,1,2.358205891,win,NA
03_KL,60,slots visible: 0,50 cents,1,2.96580088,win,NA
03_KL,61,slots visible: 2,40 cents,0,2.408639645,win,NA
03_KL,62,slots visible: 3,10 cents,1,2.255136994,loss,NA
03_KL,63,slots visible: 1,50 cents,1,3.130060347,loss,NA
03_KL,64,slots visible: 5,50 cents,1,2.807746479,loss,NA
03_KL,65,slots visible: 3,10 cents,1,2.374155784,loss,NA
03_KL,66,slots visible: 3,20 cents,1,2.82142079,win,NA
03_KL,67,slots visible: 5,30 cents,0,3.41724844,win,NA
03_KL,68,slots visible: 2,50 cents,1,2.852898302,loss,NA
03_KL,69,slots visible: 1,30 cents,1,2.4576277,loss,NA
03_KL,70,slots visible: 1,50 cents,1,3.183140051,win,NA
03_KL,71,slots visible: 5,50 cents,1,2.507126588,loss,NA
03_KL,72,slots visible: 4,30 cents,0,2.932387364,win,NA
03_KL,73,slots visible: 3,30 cents,1,3.097461465,win,NA
03_KL,74,slots visible: 1,40 cents,0,2.958867687,loss,NA
03_KL,75,slots visible: 0,40 cents,1,2.956744299,loss,NA
03_KL,76,slots visible: 1,20 cents,1,3.439103409,loss,NA
03_KL,77,slots visible: 0,50 cents,0,3.051728137,loss,NA
03_KL,78,slots visible: 2,10 cents,1,2.352057422,loss,NA
03_KL,79,slots visible: 1,40 cents,1,3.283611677,loss,NA
03_KL,80,slots visible: 1,20 cents,0,2.395014892,win,NA
03_KL,81,slots visible: 2,50 cents,1,2.473961451,win,NA
03_KL,82,slots visible: 2,10 cents,1,2.85411439,win,NA
03_KL,83,slots visible: 1,40 cents,1,3.122143903,win,NA
03_KL,84,slots visible: 4,10 cents,1,3.092788898,win,NA
03_KL,85,slots visible: 5,20 cents,0,1.960269985,win,NA
03_KL,86,slots visible: 1,10 cents,1,3.178375111,loss,NA
03_KL,87,slots visible: 5,30 cents,1,2.352205218,loss,NA
03_KL,88,slots visible: 4,10 cents,1,2.034674763,loss,NA
03_KL,89,slots visible: 4,20 cents,1,2.723461101,win,NA
03_KL,90,slots visible: 1,30 cents,1,2.904662509,win,NA
03_KL,91,slots visible: 5,10 cents,1,2.221937546,win,NA
03_KL,92,slots visible: 3,10 cents,0,2.241572357,win,NA
03_KL,93,slots visible: 3,20 cents,1,2.449468156,win,NA
03_KL,94,slots visible: 4,50 cents,1,2.961221565,loss,NA
03_KL,95,slots visible: 3,20 cents,0,2.353808682,loss,NA
03_KL,96,slots visible: 2,40 cents,1,2.754224269,loss,NA
03_KL,97,slots visible: 5,20 cents,1,2.102498243,loss,NA
03_KL,98,slots visible: 0,10 cents,0,3.251015728,win,NA
03_KL,99,slots visible: 5,30 cents,1,2.417337294,win,NA
03_KL,100,slots visible: 4,40 cents,1,3.159746425,loss,NA
03_KL,101,slots visible: 4,40 cents,1,3.310378793,win,NA
03_KL,102,slots visible: 4,40 cents,1,2.770667986,loss,NA
03_KL,103,slots visible: 1,10 cents,0,2.129305241,win,NA
03_KL,104,slots visible: 4,30 cents,1,2.847615786,loss,NA
03_KL,105,slots visible: 0,20 cents,0,2.15706118,win,NA
03_KL,106,slots visible: 3,20 cents,1,2.749264321,win,NA
03_KL,107,slots visible: 3,40 cents,1,2.849001662,win,NA
03_KL,108,slots visible: 3,50 cents,1,3.087368557,loss,NA
03_KL,109,slots visible: 1,10 cents,0,2.599918126,loss,NA
03_KL,110,slots visible: 1,10 cents,1,2.590584722,loss,NA
03_KL,111,slots visible: 1,50 cents,1,3.324659242,loss,NA
03_KL,112,slots visible: 0,50 cents,1,2.421191707,win,NA
03_KL,113,slots visible: 0,20 cents,0,2.144758376,loss,NA
03_KL,114,slots visible: 4,50 cents,1,2.790235643,win,NA
03_KL,115,slots visible: 3,10 cents,1,3.016613506,win,NA
03_KL,116,slots visible: 2,10 cents,0,2.264098563,win,NA
03_KL,117,slots visible: 3,20 cents,1,3.112014045,loss,NA
03_KL,118,slots visible: 4,20 cents,1,2.978690174,win,NA
03_KL,119,slots visible: 3,30 cents,1,2.946425592,loss,NA
03_KL,120,slots visible: 2,40 cents,1,2.212783902,loss,NA
03_KL,121,slots visible: 0,10 cents,1,2.903621782,win,NA
03_KL,122,slots visible: 1,30 cents,1,3.217323335,win,NA
03_KL,123,slots visible: 2,30 cents,0,2.752396765,win,NA
03_KL,124,slots visible: 4,40 cents,1,2.675040182,win,NA
03_KL,125,slots visible: 4,50 cents,1,3.477176883,win,NA
03_KL,126,slots visible: 4,20 cents,0,3.79780899,loss,NA
03_KL,127,slots visible: 4,50 cents,1,2.527333226,loss,NA
03_KL,128,slots visible: 5,10 cents,1,2.510081619,loss,NA
03_KL,129,slots visible: 0,20 cents,1,2.779350093,win,NA
03_KL,130,slots visible: 0,30 cents,0,2.936742053,win,NA
03_KL,131,slots visible: 5,10 cents,1,2.892029804,loss,NA
03_KL,132,slots visible: 0,10 cents,0,2.39387065,loss,NA
03_KL,133,slots visible: 1,30 cents,1,3.147162399,loss,NA
03_KL,134,slots visible: 5,20 cents,1,2.828412046,win,NA
03_KL,135,slots visible: 4,20 cents,1,3.119124358,loss,NA
03_KL,136,slots visible: 1,50 cents,1,3.02211713,win,NA
03_KL,137,slots visible: 2,20 cents,0,2.665969525,loss,NA
03_KL,138,slots visible: 0,10 cents,0,2.996126233,win,NA
03_KL,139,slots visible: 2,10 cents,0,2.54235969,loss,NA
03_KL,140,slots visible: 2,20 cents,1,2.418260136,loss,NA
03_KL,141,slots visible: 0,30 cents,1,3.054132747,loss,NA
03_KL,142,slots visible: 4,10 cents,1,2.742266614,loss,NA
03_KL,143,slots visible: 3,40 cents,1,3.116436474,loss,NA
03_KL,144,slots visible: 5,40 cents,1,2.380800424,loss,NA
03_KL,145,slots visible: 1,50 cents,1,3.457470521,win,NA
03_KL,146,slots visible: 2,40 cents,1,3.100372802,loss,NA
03_KL,147,slots visible: 2,20 cents,0,3.219406841,win,NA
03_KL,148,slots visible: 0,10 cents,1,2.366480388,loss,NA
03_KL,149,slots visible: 0,40 cents,1,3.336280544,loss,NA
03_KL,150,slots visible: 5,40 cents,1,3.179234613,win,NA
03_KL,151,slots visible: 1,10 cents,0,2.703025145,win,NA
03_KL,152,slots visible: 2,10 cents,1,3.707516194,win,NA
03_KL,153,slots visible: 0,20 cents,0,3.309399648,loss,NA
03_KL,154,slots visible: 0,40 cents,1,2.639061944,loss,NA
03_KL,155,slots visible: 2,20 cents,1,3.402147199,win,NA
03_KL,156,slots visible: 5,10 cents,1,2.793707665,win,NA
03_KL,157,slots visible: 2,40 cents,0,2.385452757,win,NA
03_KL,158,slots visible: 0,50 cents,1,3.612711529,win,NA
03_KL,159,slots visible: 5,20 cents,1,2.659531037,loss,NA
03_KL,160,slots visible: 3,40 cents,0,3.232354198,loss,NA
03_KL,161,slots visible: 5,40 cents,1,3.266545987,win,NA
03_KL,162,slots visible: 5,50 cents,1,3.53287937,win,NA
03_KL,163,slots visible: 5,10 cents,0,2.292657994,loss,NA
03_KL,164,slots visible: 2,30 cents,0,2.275286449,win,NA
03_KL,165,slots visible: 5,40 cents,1,2.511507083,win,NA
03_KL,166,slots visible: 1,20 cents,1,2.604039099,loss,NA
03_KL,167,slots visible: 4,40 cents,1,2.708511174,win,NA
03_KL,168,slots visible: 5,50 cents,1,3.358877716,win,NA
03_KL,169,slots visible: 1,30 cents,0,2.575538317,loss,NA
03_KL,170,slots visible: 3,50 cents,1,2.904314134,win,NA
03_KL,171,slots visible: 3,30 cents,0,3.149388716,win,NA
03_KL,172,slots visible: 2,20 cents,1,2.815289329,win,NA
03_KL,173,slots visible: 4,50 cents,0,2.967059195,win,NA
03_KL,174,slots visible: 0,50 cents,1,3.083786568,loss,NA
03_KL,175,slots visible: 1,10 cents,0,2.517071408,win,NA
03_KL,176,slots visible: 4,30 cents,1,3.566493173,loss,NA
03_KL,177,slots visible: 0,50 cents,1,2.5510764,loss,NA
03_KL,178,slots visible: 2,30 cents,1,3.0719641,loss,NA
03_KL,179,slots visible: 5,30 cents,1,2.754893747,loss,NA
03_KL,180,slots visible: 1,30 cents,1,3.301479979,win,NA
04_CY,1,slots visible: 0,20 cents,0,2.065663436,loss,NA
04_CY,2,slots visible: 0,50 cents,1,2.016995898,win,NA
04_CY,3,slots visible: 4,50 cents,1,1.340873935,win,NA
04_CY,4,slots visible: 1,50 cents,0,2.999454271,loss,NA
04_CY,5,slots visible: 1,50 cents,0,2.056971359,loss,NA
04_CY,6,slots visible: 1,10 cents,0,2.374439939,win,NA
04_CY,7,slots visible: 2,50 cents,1,1.340547553,loss,NA
04_CY,8,slots visible: 4,20 cents,1,1.000030204,loss,NA
04_CY,9,slots visible: 4,30 cents,1,1.000059236,loss,NA
04_CY,10,slots visible: 3,30 cents,1,1.647909734,win,NA
04_CY,11,slots visible: 0,20 cents,0,2.336022488,win,NA
04_CY,12,slots visible: 3,20 cents,1,1.574526329,win,NA
04_CY,13,slots visible: 5,10 cents,1,1.028819539,win,NA
04_CY,14,slots visible: 0,30 cents,0,2.733622629,win,NA
04_CY,15,slots visible: 2,10 cents,1,1.000053371,win,NA
04_CY,16,slots visible: 2,10 cents,1,1.00003431,loss,NA
04_CY,17,slots visible: 1,30 cents,1,2.076364535,win,NA
04_CY,18,slots visible: 4,30 cents,1,1.93288588,loss,NA
04_CY,19,slots visible: 3,40 cents,1,2.089265559,win,NA
04_CY,20,slots visible: 4,30 cents,1,2.751566295,win,NA
04_CY,21,slots visible: 1,20 cents,0,2.978200455,loss,NA
04_CY,22,slots visible: 0,30 cents,0,1.000006745,loss,NA
04_CY,23,slots visible: 4,20 cents,1,1.00006686,win,NA
04_CY,24,slots visible: 4,30 cents,1,1.421850335,win,NA
04_CY,25,slots visible: 3,30 cents,1,1.000041641,win,NA
04_CY,26,slots visible: 2,40 cents,1,1.000014955,loss,NA
04_CY,27,slots visible: 2,20 cents,1,1.986822446,win,NA
04_CY,28,slots visible: 3,20 cents,1,1.000092959,loss,NA
04_CY,29,slots visible: 5,40 cents,1,1.430646221,win,NA
04_CY,30,slots visible: 4,10 cents,1,1.000006451,loss,NA
04_CY,31,slots visible: 1,50 cents,1,1.650612281,win,NA
04_CY,32,slots visible: 1,20 cents,0,1.346638253,win,NA
04_CY,33,slots visible: 2,50 cents,1,1.269723297,win,NA
04_CY,34,slots visible: 4,10 cents,1,1.663554652,loss,NA
04_CY,35,slots visible: 0,10 cents,0,1.604594212,win,NA
04_CY,36,slots visible: 2,30 cents,1,1.0201779,loss,NA
04_CY,37,slots visible: 3,50 cents,1,1.000017008,loss,NA
04_CY,38,slots visible: 3,10 cents,1,1.255966584,win,NA
04_CY,39,slots visible: 1,30 cents,1,1.910444715,loss,NA
04_CY,40,slots visible: 3,10 cents,1,1.000037829,loss,NA
04_CY,41,slots visible: 2,50 cents,1,1.010213433,win,NA
04_CY,42,slots visible: 0,10 cents,0,1.000031377,loss,NA
04_CY,43,slots visible: 3,40 cents,1,1.401648976,win,NA
04_CY,44,slots visible: 0,40 cents,0,1.715134114,win,NA
04_CY,45,slots visible: 5,20 cents,1,1.000032257,win,NA
04_CY,46,slots visible: 5,30 cents,1,1.000031084,loss,NA
04_CY,47,slots visible: 1,50 cents,1,1.004409819,loss,NA
04_CY,48,slots visible: 0,30 cents,1,3.186119127,loss,NA
04_CY,49,slots visible: 2,20 cents,1,1.00006598,win,NA
04_CY,50,slots visible: 0,20 cents,0,1.542196939,win,NA
04_CY,51,slots visible: 0,10 cents,0,1.2342512,win,NA
04_CY,52,slots visible: 4,10 cents,1,1.000068326,win,NA
04_CY,53,slots visible: 0,30 cents,1,1.720557975,loss,NA
04_CY,54,slots visible: 5,50 cents,1,1.408281593,loss,NA
04_CY,55,slots visible: 4,20 cents,1,1.384266288,win,NA
04_CY,56,slots visible: 5,10 cents,1,2.564931643,loss,NA
04_CY,57,slots visible: 2,20 cents,1,1.524709563,win,NA
04_CY,58,slots visible: 1,40 cents,1,1.956543133,loss,NA
04_CY,59,slots visible: 5,30 cents,1,1.127534041,win,NA
04_CY,60,slots visible: 3,30 cents,1,1.474700721,loss,NA
04_CY,61,slots visible: 2,30 cents,1,1.170984456,loss,NA
04_CY,62,slots visible: 2,20 cents,1,3.358222606,loss,NA
04_CY,63,slots visible: 1,30 cents,1,2.38272939,win,NA
04_CY,64,slots visible: 4,10 cents,1,1.000034603,win,NA
04_CY,65,slots visible: 5,10 cents,1,1.123325387,loss,NA
04_CY,66,slots visible: 2,30 cents,1,1.044512256,win,NA
04_CY,67,slots visible: 3,10 cents,1,2.098798956,loss,NA
04_CY,68,slots visible: 3,20 cents,1,2.257695557,loss,NA
04_CY,69,slots visible: 3,40 cents,1,1.163427237,loss,NA
04_CY,70,slots visible: 0,10 cents,0,1.00007859,loss,NA
04_CY,71,slots visible: 4,40 cents,1,1.000039588,loss,NA
04_CY,72,slots visible: 0,40 cents,1,1.104240998,win,NA
04_CY,73,slots visible: 5,30 cents,1,1.396148285,loss,NA
04_CY,74,slots visible: 1,20 cents,1,2.974107633,loss,NA
04_CY,75,slots visible: 1,30 cents,1,1.000070965,loss,NA
04_CY,76,slots visible: 0,10 cents,0,1.046999267,loss,NA
04_CY,77,slots visible: 3,40 cents,1,1.205744554,loss,NA
04_CY,78,slots visible: 3,50 cents,1,1.000059236,loss,NA
04_CY,79,slots visible: 1,30 cents,1,1.8557636,win,NA
04_CY,80,slots visible: 3,50 cents,1,1.044621343,loss,NA
04_CY,81,slots visible: 5,40 cents,1,1.123842965,loss,NA
04_CY,82,slots visible: 4,50 cents,1,1.053116653,loss,NA
04_CY,83,slots visible: 2,10 cents,1,1.629674583,loss,NA
04_CY,84,slots visible: 4,40 cents,1,1.159559921,win,NA
04_CY,85,slots visible: 4,50 cents,1,1.196292385,win,NA
04_CY,86,slots visible: 5,20 cents,1,1.000039295,win,NA
04_CY,87,slots visible: 5,50 cents,1,1.000062754,win,NA
04_CY,88,slots visible: 5,30 cents,1,1.000080056,loss,NA
04_CY,89,slots visible: 1,30 cents,1,4.270571362,loss,NA
04_CY,90,slots visible: 1,20 cents,0,1.000027858,win,NA
04_CY,91,slots visible: 0,50 cents,1,1.000071845,loss,NA
04_CY,92,slots visible: 2,50 cents,1,1.298684473,loss,NA
04_CY,93,slots visible: 2,10 cents,0,1.279327659,loss,NA
04_CY,94,slots visible: 5,50 cents,1,1.022410082,win,NA
04_CY,95,slots visible: 0,40 cents,1,1.000004985,loss,NA
04_CY,96,slots visible: 4,50 cents,1,1.017806427,loss,NA
04_CY,97,slots visible: 1,50 cents,1,1.00003167,win,NA
04_CY,98,slots visible: 2,40 cents,1,1.07975914,loss,NA
04_CY,99,slots visible: 2,30 cents,1,1.417780973,loss,NA
04_CY,100,slots visible: 1,10 cents,0,1.000013783,loss,NA
04_CY,101,slots visible: 0,30 cents,0,1.272221745,win,NA
04_CY,102,slots visible: 5,20 cents,1,1.089994566,loss,NA
04_CY,103,slots visible: 4,20 cents,1,1.713228608,loss,NA
04_CY,104,slots visible: 3,30 cents,1,1.000047506,win,NA
04_CY,105,slots visible: 3,10 cents,1,1.988990407,win,NA
04_CY,106,slots visible: 3,40 cents,1,1.000029911,win,NA
04_CY,107,slots visible: 5,20 cents,1,1.000059822,loss,NA
04_CY,108,slots visible: 3,40 cents,1,1.147163866,loss,NA
04_CY,109,slots visible: 0,30 cents,0,1.243985177,win,NA
04_CY,110,slots visible: 4,30 cents,1,1.109907959,win,NA
04_CY,111,slots visible: 4,20 cents,1,1.582494677,loss,NA
04_CY,112,slots visible: 3,50 cents,1,1.241141286,win,NA
04_CY,113,slots visible: 4,40 cents,1,1.000057476,win,NA
04_CY,114,slots visible: 0,50 cents,1,1.034100883,loss,NA
04_CY,115,slots visible: 2,10 cents,0,2.069923701,win,NA
04_CY,116,slots visible: 4,10 cents,1,1.31069022,loss,NA
04_CY,117,slots visible: 5,50 cents,1,1.217664966,loss,NA
04_CY,118,slots visible: 2,30 cents,1,2.135557519,win,NA
04_CY,119,slots visible: 0,20 cents,0,1.052535734,loss,NA
04_CY,120,slots visible: 3,10 cents,1,3.088699596,win,NA
04_CY,121,slots visible: 2,40 cents,1,1.216462661,win,NA
04_CY,122,slots visible: 1,10 cents,0,1.000049558,loss,NA
04_CY,123,slots visible: 0,50 cents,1,1.105189646,win,NA
04_CY,124,slots visible: 1,40 cents,1,2.795466255,win,NA
04_CY,125,slots visible: 3,30 cents,1,2.16437178,loss,NA
04_CY,126,slots visible: 1,40 cents,1,1.430424821,loss,NA
04_CY,127,slots visible: 3,20 cents,1,3.58475501,win,NA
04_CY,128,slots visible: 5,10 cents,1,1.97210213,loss,NA
04_CY,129,slots visible: 5,40 cents,1,1.133674006,loss,NA
04_CY,130,slots visible: 5,20 cents,1,1.000107914,loss,NA
04_CY,131,slots visible: 5,10 cents,0,1.706046743,win,NA
04_CY,132,slots visible: 4,50 cents,1,1.148709854,win,NA
04_CY,133,slots visible: 1,40 cents,1,1.000025806,win,NA
04_CY,134,slots visible: 0,20 cents,0,1.000017301,win,NA
04_CY,135,slots visible: 2,10 cents,0,1.000032257,win,NA
04_CY,136,slots visible: 2,50 cents,1,1.138790253,win,NA
04_CY,137,slots visible: 4,10 cents,0,1.226113356,win,NA
04_CY,138,slots visible: 5,40 cents,1,1.037036852,loss,NA
04_CY,139,slots visible: 1,20 cents,0,1.204561017,win,NA
04_CY,140,slots visible: 3,50 cents,1,1.000068619,win,NA
04_CY,141,slots visible: 0,50 cents,0,1.00006774,win,NA
04_CY,142,slots visible: 4,40 cents,1,1.000041641,win,NA
04_CY,143,slots visible: 4,50 cents,1,1.255105617,loss,NA
04_CY,144,slots visible: 1,50 cents,1,1.076352805,win,NA
04_CY,145,slots visible: 1,40 cents,1,1.213802048,loss,NA
04_CY,146,slots visible: 1,20 cents,0,1.284022806,loss,NA
04_CY,147,slots visible: 2,50 cents,1,1.009246604,loss,NA
04_CY,148,slots visible: 5,30 cents,1,1.000002346,win,NA
04_CY,149,slots visible: 1,10 cents,0,1.155143944,win,NA
04_CY,150,slots visible: 5,50 cents,1,1.000017008,win,NA
04_CY,151,slots visible: 3,10 cents,0,1.151108012,loss,NA
04_CY,152,slots visible: 3,50 cents,1,1.15444866,win,NA
04_CY,153,slots visible: 5,40 cents,1,1.170521129,win,NA
04_CY,154,slots visible: 4,30 cents,1,1.938077198,loss,NA
04_CY,155,slots visible: 2,40 cents,1,1.071425115,win,NA
04_CY,156,slots visible: 2,30 cents,0,1.168895085,win,NA
04_CY,157,slots visible: 2,40 cents,1,1.14916409,win,NA
04_CY,158,slots visible: 3,20 cents,0,1.122708986,win,NA
04_CY,159,slots visible: 5,40 cents,1,1.000041348,win,NA
04_CY,160,slots visible: 5,30 cents,1,2.491628,win,NA
04_CY,161,slots visible: 1,10 cents,0,1.088738598,loss,NA
04_CY,162,slots visible: 5,20 cents,0,1.503391233,win,NA
04_CY,163,slots visible: 2,20 cents,0,1.000005278,loss,NA
04_CY,164,slots visible: 5,10 cents,0,1.557003763,win,NA
04_CY,165,slots visible: 0,40 cents,1,1.32664803,win,NA
04_CY,166,slots visible: 4,20 cents,0,1.238880367,win,NA
04_CY,167,slots visible: 0,40 cents,1,1.136301775,loss,NA
04_CY,168,slots visible: 4,40 cents,1,1.000089147,loss,NA
04_CY,169,slots visible: 3,30 cents,1,1.395262685,loss,NA
04_CY,170,slots visible: 0,10 cents,0,1.046161466,win,NA
04_CY,171,slots visible: 4,40 cents,1,1.000016715,loss,NA
04_CY,172,slots visible: 5,50 cents,1,1.232076201,loss,NA
04_CY,173,slots visible: 1,40 cents,1,1.000068913,win,NA
04_CY,174,slots visible: 2,20 cents,0,1.17881322,loss,NA
04_CY,175,slots visible: 2,40 cents,1,1.166042104,loss,NA
04_CY,176,slots visible: 0,20 cents,0,1.125193945,loss,NA
04_CY,177,slots visible: 1,10 cents,0,1.000047212,win,NA
04_CY,178,slots visible: 3,20 cents,0,1.000043987,loss,NA
04_CY,179,slots visible: 0,40 cents,1,1.000065687,loss,NA
04_CY,180,slots visible: 0,50 cents,1,1.00012199,loss,NA
06_SG,1,slots visible: 4,30 cents,1,2.411873638,win,NA
06_SG,2,slots visible: 1,30 cents,0,1.27134188,win,NA
06_SG,3,slots visible: 4,20 cents,1,1.190837523,loss,NA
06_SG,4,slots visible: 0,30 cents,0,2.51148198,win,NA
06_SG,5,slots visible: 2,40 cents,1,2.211689246,loss,NA
06_SG,6,slots visible: 5,50 cents,1,1.857751297,loss,NA
06_SG,7,slots visible: 3,50 cents,1,2.488486642,win,NA
06_SG,8,slots visible: 5,10 cents,1,1.90290828,win,NA
06_SG,9,slots visible: 2,20 cents,0,1.87530578,win,NA
06_SG,10,slots visible: 3,30 cents,1,2.277932546,loss,NA
06_SG,11,slots visible: 4,40 cents,1,1.080191758,loss,NA
06_SG,12,slots visible: 5,50 cents,1,1.744689786,loss,NA
06_SG,13,slots visible: 4,50 cents,1,1.044673716,loss,NA
06_SG,14,slots visible: 5,20 cents,1,2.683435744,win,NA
06_SG,15,slots visible: 1,10 cents,1,1.52231853,loss,NA
06_SG,16,slots visible: 5,50 cents,1,2.644056847,win,NA
06_SG,17,slots visible: 4,40 cents,0,1.87526502,win,NA
06_SG,18,slots visible: 3,30 cents,1,1.255025767,win,NA
06_SG,19,slots visible: 0,10 cents,0,1.646398989,loss,NA
06_SG,20,slots visible: 0,50 cents,0,1.405767705,win,NA
06_SG,21,slots visible: 4,50 cents,1,1.926297151,win,NA
06_SG,22,slots visible: 3,30 cents,0,1.302655972,win,NA
06_SG,23,slots visible: 3,20 cents,1,1.890993764,loss,NA
06_SG,24,slots visible: 4,40 cents,1,2.09022042,loss,NA
06_SG,25,slots visible: 4,10 cents,1,2.529898602,loss,NA
06_SG,26,slots visible: 0,40 cents,0,2.632933798,loss,NA
06_SG,27,slots visible: 2,50 cents,1,1.0127139,loss,NA
06_SG,28,slots visible: 5,30 cents,1,2.3870986,loss,NA
06_SG,29,slots visible: 3,10 cents,0,2.717271737,win,NA
06_SG,30,slots visible: 3,20 cents,1,2.16791315,win,NA
06_SG,31,slots visible: 5,50 cents,0,2.733461168,loss,NA
06_SG,32,slots visible: 4,20 cents,1,1.956764941,loss,NA
06_SG,33,slots visible: 1,10 cents,0,1.00005337,loss,NA
06_SG,34,slots visible: 2,10 cents,0,1.801643986,win,NA
06_SG,35,slots visible: 3,10 cents,1,2.354024162,loss,NA
06_SG,36,slots visible: 0,20 cents,1,2.82029315,loss,NA
06_SG,37,slots visible: 5,20 cents,1,2.26686316,win,NA
06_SG,38,slots visible: 2,50 cents,1,2.038299171,loss,NA
06_SG,39,slots visible: 0,50 cents,0,3.561662824,win,NA
06_SG,40,slots visible: 1,50 cents,0,1.185343298,win,NA
06_SG,41,slots visible: 1,30 cents,0,1.000048385,loss,NA
06_SG,42,slots visible: 2,20 cents,0,1.224947407,win,NA
06_SG,43,slots visible: 2,30 cents,1,2.659055706,win,NA
06_SG,44,slots visible: 1,50 cents,0,1.009699642,loss,NA
06_SG,45,slots visible: 3,50 cents,0,2.138277589,loss,NA
06_SG,46,slots visible: 3,50 cents,0,2.526521014,win,NA
06_SG,47,slots visible: 0,10 cents,0,1.000087387,win,NA
06_SG,48,slots visible: 4,30 cents,0,2.264400494,loss,NA
06_SG,49,slots visible: 3,10 cents,0,1.000062754,win,NA
06_SG,50,slots visible: 0,30 cents,1,3.004913308,win,NA
06_SG,51,slots visible: 2,40 cents,0,1.126583299,loss,NA
06_SG,52,slots visible: 2,30 cents,0,1.021095115,loss,NA
06_SG,53,slots visible: 1,10 cents,1,2.032292648,win,NA
06_SG,54,slots visible: 4,10 cents,0,2.099751739,loss,NA
06_SG,55,slots visible: 1,40 cents,0,1.000002932,win,NA
06_SG,56,slots visible: 2,10 cents,1,3.442608279,loss,NA
06_SG,57,slots visible: 0,40 cents,0,3.186924471,loss,NA
06_SG,58,slots visible: 4,50 cents,1,2.167460088,loss,NA
06_SG,59,slots visible: 5,10 cents,1,3.15967973,win,NA
06_SG,60,slots visible: 1,40 cents,0,3.296416613,win,NA
06_SG,61,slots visible: 4,20 cents,1,2.035096064,win,NA
06_SG,62,slots visible: 4,20 cents,1,2.411538753,loss,NA
06_SG,63,slots visible: 4,30 cents,1,2.864714969,win,NA
06_SG,64,slots visible: 2,50 cents,0,1.974401532,win,NA
06_SG,65,slots visible: 2,20 cents,0,3.219864017,win,NA
06_SG,66,slots visible: 4,10 cents,0,3.521237925,win,NA
06_SG,67,slots visible: 3,20 cents,1,1.921799957,loss,NA
06_SG,68,slots visible: 4,50 cents,1,2.304480538,win,NA
06_SG,69,slots visible: 3,10 cents,0,2.166557775,loss,NA
06_SG,70,slots visible: 5,30 cents,1,3.111114663,win,NA
06_SG,71,slots visible: 2,50 cents,0,1.505412703,win,NA
06_SG,72,slots visible: 0,10 cents,1,1.877801583,loss,NA
06_SG,73,slots visible: 0,40 cents,0,1.000008211,loss,NA
06_SG,74,slots visible: 5,30 cents,1,3.270755098,win,NA
06_SG,75,slots visible: 0,20 cents,0,1.967962767,win,NA
06_SG,76,slots visible: 3,40 cents,1,3.391426299,win,NA
06_SG,77,slots visible: 1,10 cents,0,1.6820009,loss,NA
06_SG,78,slots visible: 3,10 cents,1,2.5563856,win,NA
06_SG,79,slots visible: 5,50 cents,0,2.732771751,win,NA
06_SG,80,slots visible: 0,30 cents,0,2.313255581,loss,NA
06_SG,81,slots visible: 0,30 cents,0,2.291592451,loss,NA
06_SG,82,slots visible: 5,50 cents,1,4.018068247,win,NA
06_SG,83,slots visible: 1,20 cents,0,1.719538222,win,NA
06_SG,84,slots visible: 1,40 cents,0,2.288981697,win,NA
06_SG,85,slots visible: 0,10 cents,1,2.270580325,win,NA
06_SG,86,slots visible: 1,50 cents,0,2.401803628,loss,NA
06_SG,87,slots visible: 0,40 cents,1,3.346164922,win,NA
06_SG,88,slots visible: 5,10 cents,0,2.742769329,loss,NA
06_SG,89,slots visible: 4,50 cents,1,2.675267424,win,NA
06_SG,90,slots visible: 4,10 cents,0,2.628499064,win,NA
06_SG,91,slots visible: 5,30 cents,1,2.671942327,win,NA
06_SG,92,slots visible: 0,50 cents,1,3.010537147,loss,NA
06_SG,93,slots visible: 2,20 cents,0,2.234960526,loss,NA
06_SG,94,slots visible: 3,30 cents,1,2.554382448,loss,NA
06_SG,95,slots visible: 5,40 cents,1,3.957739391,win,NA
06_SG,96,slots visible: 1,30 cents,0,2.151383263,win,NA
06_SG,97,slots visible: 4,50 cents,0,3.489684839,loss,NA
06_SG,98,slots visible: 4,10 cents,1,2.369174335,win,NA
06_SG,99,slots visible: 4,20 cents,0,1.945573272,win,NA
06_SG,100,slots visible: 0,20 cents,0,2.453971789,win,NA
06_SG,101,slots visible: 2,10 cents,1,2.362465199,loss,NA
06_SG,102,slots visible: 3,50 cents,1,3.569830851,loss,NA
06_SG,103,slots visible: 0,30 cents,0,1.000020527,loss,NA
06_SG,104,slots visible: 2,10 cents,0,3.591859949,win,NA
06_SG,105,slots visible: 2,20 cents,1,2.244201827,loss,NA
06_SG,106,slots visible: 2,10 cents,1,2.884549134,win,NA
06_SG,107,slots visible: 1,20 cents,0,2.531761583,loss,NA
06_SG,108,slots visible: 5,40 cents,1,2.563307631,loss,NA
06_SG,109,slots visible: 5,40 cents,1,2.803916336,win,NA
06_SG,110,slots visible: 5,30 cents,1,3.156403605,loss,NA
06_SG,111,slots visible: 3,40 cents,0,3.07881439,loss,NA
06_SG,112,slots visible: 0,10 cents,0,2.729267188,loss,NA
06_SG,113,slots visible: 5,40 cents,1,3.577826743,loss,NA
06_SG,114,slots visible: 5,40 cents,1,2.854873984,loss,NA
06_SG,115,slots visible: 1,20 cents,0,1.436589147,win,NA
06_SG,116,slots visible: 3,30 cents,1,2.326998181,loss,NA
06_SG,117,slots visible: 3,50 cents,1,2.811604029,win,NA
06_SG,118,slots visible: 4,40 cents,1,3.172084257,loss,NA
06_SG,119,slots visible: 3,40 cents,0,3.60141678,loss,NA
06_SG,120,slots visible: 1,20 cents,1,3.748684359,loss,NA
06_SG,121,slots visible: 4,10 cents,1,1.843717212,loss,NA
06_SG,122,slots visible: 2,50 cents,1,2.473174305,loss,NA
06_SG,123,slots visible: 5,20 cents,1,3.652497884,loss,NA
06_SG,124,slots visible: 1,50 cents,0,2.187903614,loss,NA
06_SG,125,slots visible: 0,30 cents,0,2.297452059,win,NA
06_SG,126,slots visible: 3,20 cents,1,2.983935198,win,NA
06_SG,127,slots visible: 2,30 cents,0,3.602516153,win,NA
06_SG,128,slots visible: 0,20 cents,0,1.956745,win,NA
06_SG,129,slots visible: 5,10 cents,1,2.253211172,win,NA
06_SG,130,slots visible: 1,50 cents,1,2.637418969,win,NA
06_SG,131,slots visible: 0,50 cents,1,3.053977771,win,NA
06_SG,132,slots visible: 4,30 cents,0,3.464775788,win,NA
06_SG,133,slots visible: 3,20 cents,0,2.278908756,win,NA
06_SG,134,slots visible: 4,30 cents,1,2.494426892,loss,NA
06_SG,135,slots visible: 4,40 cents,0,2.741606322,win,NA
06_SG,136,slots visible: 1,20 cents,1,2.626161321,loss,NA
06_SG,137,slots visible: 1,40 cents,0,1.541681158,loss,NA
06_SG,138,slots visible: 2,30 cents,1,4.131150872,win,NA
06_SG,139,slots visible: 1,30 cents,0,1.920845447,loss,NA
06_SG,140,slots visible: 2,10 cents,0,3.762090902,loss,NA
06_SG,141,slots visible: 1,30 cents,0,2.081540682,loss,NA
06_SG,142,slots visible: 1,50 cents,0,2.418906515,win,NA
06_SG,143,slots visible: 0,40 cents,0,1.407475266,win,NA
06_SG,144,slots visible: 2,30 cents,1,2.717781689,loss,NA
06_SG,145,slots visible: 4,30 cents,1,3.581869409,loss,NA
06_SG,146,slots visible: 3,40 cents,1,3.522693883,win,NA
06_SG,147,slots visible: 2,40 cents,1,2.162124801,win,NA
06_SG,148,slots visible: 1,30 cents,0,2.642578603,win,NA
06_SG,149,slots visible: 0,10 cents,1,2.660044233,win,NA
06_SG,150,slots visible: 0,50 cents,1,2.688343774,loss,NA
06_SG,151,slots visible: 1,20 cents,0,1.799707987,win,NA
06_SG,152,slots visible: 5,20 cents,1,4.091170532,loss,NA
06_SG,153,slots visible: 3,30 cents,0,2.209778466,win,NA
06_SG,154,slots visible: 2,40 cents,1,2.282033567,win,NA
06_SG,155,slots visible: 3,40 cents,1,2.46058738,win,NA
06_SG,156,slots visible: 3,20 cents,1,3.345062323,loss,NA
06_SG,157,slots visible: 5,20 cents,0,1.813403082,win,NA
06_SG,158,slots visible: 5,10 cents,1,3.090489032,loss,NA
06_SG,159,slots visible: 3,50 cents,1,2.306303345,loss,NA
06_SG,160,slots visible: 4,40 cents,0,3.110843118,win,NA
06_SG,161,slots visible: 1,40 cents,0,1.649049331,loss,NA
06_SG,162,slots visible: 1,10 cents,0,3.215775312,win,NA
06_SG,163,slots visible: 2,30 cents,1,3.291849627,loss,NA
06_SG,164,slots visible: 0,50 cents,0,2.210513043,loss,NA
06_SG,165,slots visible: 3,10 cents,1,2.731061843,loss,NA
06_SG,166,slots visible: 3,40 cents,1,3.408029791,loss,NA
06_SG,167,slots visible: 1,40 cents,0,3.935772168,loss,NA
06_SG,168,slots visible: 0,20 cents,0,2.443450477,loss,NA
06_SG,169,slots visible: 1,10 cents,0,2.324749877,win,NA
06_SG,170,slots visible: 4,20 cents,1,2.499654851,win,NA
06_SG,171,slots visible: 5,20 cents,1,2.240793742,loss,NA
06_SG,172,slots visible: 2,50 cents,0,1.500119057,win,NA
06_SG,173,slots visible: 2,20 cents,0,1.039476254,loss,NA
06_SG,174,slots visible: 5,40 cents,1,2.272892263,win,NA
06_SG,175,slots visible: 0,20 cents,0,1.101290392,loss,NA
06_SG,176,slots visible: 2,40 cents,0,2.986833038,loss,NA
06_SG,177,slots visible: 2,40 cents,0,2.920189753,win,NA
06_SG,178,slots visible: 0,40 cents,0,3.039913774,win,NA
06_SG,179,slots visible: 5,30 cents,1,2.400982838,loss,NA
06_SG,180,slots visible: 5,10 cents,1,2.075588116,loss,NA
07_WL,1,slots visible: 1,50 cents,0,1.149985323,loss,NA
07_WL,2,slots visible: 1,10 cents,1,2.020389509,win,NA
07_WL,3,slots visible: 4,20 cents,1,1.372064994,win,NA
07_WL,4,slots visible: 5,40 cents,1,3.562863939,win,NA
07_WL,5,slots visible: 5,10 cents,1,1.740126278,win,NA
07_WL,6,slots visible: 4,40 cents,1,3.008572215,win,NA
07_WL,7,slots visible: 3,40 cents,0,2.184033135,win,NA
07_WL,8,slots visible: 5,40 cents,1,4.027369096,loss,NA
07_WL,9,slots visible: 2,50 cents,0,1.66522643,loss,NA
07_WL,10,slots visible: 0,10 cents,1,1.598440744,win,NA
07_WL,11,slots visible: 3,20 cents,1,1.804231974,win,NA
07_WL,12,slots visible: 4,50 cents,1,3.413515843,loss,NA
07_WL,13,slots visible: 0,20 cents,1,1.579658525,win,NA
07_WL,14,slots visible: 0,50 cents,0,1.000039295,loss,NA
07_WL,15,slots visible: 5,20 cents,1,1.687701223,win,NA
07_WL,16,slots visible: 3,30 cents,1,1.86924967,win,NA
07_WL,17,slots visible: 3,50 cents,1,3.120257929,win,NA
07_WL,18,slots visible: 4,10 cents,1,2.081598211,loss,NA
07_WL,19,slots visible: 1,40 cents,0,1.585862765,win,NA
07_WL,20,slots visible: 3,50 cents,0,2.261121197,loss,NA
07_WL,21,slots visible: 3,10 cents,1,1.474765893,win,NA
07_WL,22,slots visible: 2,40 cents,1,2.107223364,loss,NA
07_WL,23,slots visible: 3,40 cents,0,3.693650631,win,NA
07_WL,24,slots visible: 5,50 cents,1,3.655660985,win,NA
07_WL,25,slots visible: 0,30 cents,1,1.70290846,win,NA
07_WL,26,slots visible: 5,10 cents,1,1.531012552,loss,NA
07_WL,27,slots visible: 4,20 cents,1,1.729383444,loss,NA
07_WL,28,slots visible: 3,50 cents,0,1.406301364,win,NA
07_WL,29,slots visible: 3,50 cents,0,2.552260104,win,NA
07_WL,30,slots visible: 4,30 cents,1,1.89051511,loss,NA
07_WL,31,slots visible: 3,20 cents,1,1.259020958,loss,NA
07_WL,32,slots visible: 1,30 cents,1,2.479459028,win,NA
07_WL,33,slots visible: 0,20 cents,1,2.389700615,loss,NA
07_WL,34,slots visible: 0,30 cents,0,4.016300171,loss,NA
07_WL,35,slots visible: 4,20 cents,1,2.294735296,win,NA
07_WL,36,slots visible: 2,20 cents,1,2.211224523,win,NA
07_WL,37,slots visible: 0,30 cents,1,2.572694186,loss,NA
07_WL,38,slots visible: 4,10 cents,1,1.924002232,loss,NA
07_WL,39,slots visible: 4,30 cents,0,2.378643712,win,NA
07_WL,40,slots visible: 3,10 cents,1,1.966804659,loss,NA
07_WL,41,slots visible: 1,30 cents,0,4.092410839,win,NA
07_WL,42,slots visible: 4,30 cents,1,1.864861512,loss,NA
07_WL,43,slots visible: 4,50 cents,1,3.238051698,loss,NA
07_WL,44,slots visible: 4,30 cents,1,2.615896603,win,NA
07_WL,45,slots visible: 0,40 cents,0,3.067849882,loss,NA
07_WL,46,slots visible: 1,30 cents,1,4.255580869,loss,NA
07_WL,47,slots visible: 3,40 cents,0,1.014091429,loss,NA
07_WL,48,slots visible: 1,30 cents,0,1.620442822,loss,NA
07_WL,49,slots visible: 5,10 cents,1,1.210950043,loss,NA
07_WL,50,slots visible: 4,20 cents,1,2.225267273,win,NA
07_WL,51,slots visible: 4,20 cents,1,2.331749014,loss,NA
07_WL,52,slots visible: 3,10 cents,1,2.46603855,win,NA
07_WL,53,slots visible: 2,50 cents,0,3.477537377,loss,NA
07_WL,54,slots visible: 0,50 cents,0,2.297031131,win,NA
07_WL,55,slots visible: 2,50 cents,99,5,win,NA
07_WL,56,slots visible: 1,50 cents,0,2.736182684,loss,NA
07_WL,57,slots visible: 0,40 cents,0,2.678550723,loss,NA
07_WL,58,slots visible: 5,20 cents,1,2.27139161,loss,NA
07_WL,59,slots visible: 5,30 cents,1,2.963150794,win,NA
07_WL,60,slots visible: 1,40 cents,0,3.304461147,loss,NA
07_WL,61,slots visible: 0,20 cents,1,1.000021114,loss,NA
07_WL,62,slots visible: 3,10 cents,1,1.715393185,win,NA
07_WL,63,slots visible: 5,50 cents,1,2.266520766,loss,NA
07_WL,64,slots visible: 0,40 cents,1,3.181257839,win,NA
07_WL,65,slots visible: 1,10 cents,1,1.5698881,win,NA
07_WL,66,slots visible: 1,20 cents,1,1.633080916,loss,NA
07_WL,67,slots visible: 2,40 cents,0,1.714270633,loss,NA
07_WL,68,slots visible: 4,10 cents,1,1.000011437,win,NA
07_WL,69,slots visible: 1,40 cents,0,2.627419183,loss,NA
07_WL,70,slots visible: 0,10 cents,1,1.645014922,loss,NA
07_WL,71,slots visible: 2,10 cents,1,1.782085032,loss,NA
07_WL,72,slots visible: 5,10 cents,1,1.154520398,win,NA
07_WL,73,slots visible: 1,30 cents,1,2.309018802,win,NA
07_WL,74,slots visible: 4,20 cents,1,1.871137012,loss,NA
07_WL,75,slots visible: 5,10 cents,1,1.665804421,loss,NA
07_WL,76,slots visible: 0,20 cents,1,2.500798367,win,NA
07_WL,77,slots visible: 3,10 cents,1,1.61956953,loss,NA
07_WL,78,slots visible: 4,40 cents,0,1.519946559,loss,NA
07_WL,79,slots visible: 0,10 cents,1,1.950554341,loss,NA
07_WL,80,slots visible: 2,30 cents,0,3.074778151,loss,NA
07_WL,81,slots visible: 2,10 cents,1,1.443545575,win,NA
07_WL,82,slots visible: 0,10 cents,1,2.266675601,win,NA
07_WL,83,slots visible: 0,30 cents,1,2.363340583,loss,NA
07_WL,84,slots visible: 5,40 cents,1,1.979402872,win,NA
07_WL,85,slots visible: 2,10 cents,1,1.759485315,win,NA
07_WL,86,slots visible: 1,50 cents,0,1.62649516,win,NA
07_WL,87,slots visible: 3,50 cents,0,2.876919269,loss,NA
07_WL,88,slots visible: 4,40 cents,1,1.980464721,loss,NA
07_WL,89,slots visible: 4,10 cents,1,1.729539745,loss,NA
07_WL,90,slots visible: 5,50 cents,1,2.44818534,loss,NA
07_WL,91,slots visible: 2,40 cents,0,2.910470613,win,NA
07_WL,92,slots visible: 3,30 cents,1,1.807983785,loss,NA
07_WL,93,slots visible: 5,30 cents,1,2.208015807,loss,NA
07_WL,94,slots visible: 2,30 cents,1,2.189250597,win,NA
07_WL,95,slots visible: 1,40 cents,1,3.216155775,win,NA
07_WL,96,slots visible: 0,20 cents,1,2.25339852,loss,NA
07_WL,97,slots visible: 2,50 cents,0,1.426668586,win,NA
07_WL,98,slots visible: 2,30 cents,1,2.028136819,win,NA
07_WL,99,slots visible: 2,20 cents,1,2.063848224,win,NA
07_WL,100,slots visible: 1,30 cents,1,2.149053968,loss,NA
07_WL,101,slots visible: 0,10 cents,1,1.40648523,win,NA
07_WL,102,slots visible: 1,50 cents,0,2.071912535,win,NA
07_WL,103,slots visible: 1,20 cents,1,2.358211095,win,NA
07_WL,104,slots visible: 1,10 cents,1,1.568798391,loss,NA
07_WL,105,slots visible: 1,20 cents,1,1.247046776,win,NA
07_WL,106,slots visible: 4,30 cents,1,1.911388771,loss,NA
07_WL,107,slots visible: 5,50 cents,0,2.335743634,win,NA
07_WL,108,slots visible: 2,20 cents,1,2.282921228,loss,NA
07_WL,109,slots visible: 2,10 cents,1,1.61272513,loss,NA
07_WL,110,slots visible: 4,40 cents,0,2.632258356,loss,NA
07_WL,111,slots visible: 2,40 cents,0,2.897794396,win,NA
07_WL,112,slots visible: 2,20 cents,1,2.455886609,win,NA
07_WL,113,slots visible: 0,50 cents,1,2.574484463,loss,NA
07_WL,114,slots visible: 1,10 cents,1,1.000065394,loss,NA
07_WL,115,slots visible: 5,20 cents,1,1.741177864,win,NA
07_WL,116,slots visible: 3,30 cents,1,1.61753791,win,NA
07_WL,117,slots visible: 2,50 cents,0,1.870026483,loss,NA
07_WL,118,slots visible: 0,30 cents,1,2.208580895,win,NA
07_WL,119,slots visible: 1,40 cents,0,1.783978825,win,NA
07_WL,120,slots visible: 1,20 cents,1,2.126235196,win,NA
07_WL,121,slots visible: 2,10 cents,1,1.955567409,loss,NA
07_WL,122,slots visible: 5,50 cents,0,1.883991816,loss,NA
07_WL,123,slots visible: 3,30 cents,1,2.12021013,win,NA
07_WL,124,slots visible: 5,30 cents,1,2.209919864,loss,NA
07_WL,125,slots visible: 0,20 cents,1,1.112885683,win,NA
07_WL,126,slots visible: 3,20 cents,1,2.036345114,loss,NA
07_WL,127,slots visible: 5,40 cents,0,2.252134916,loss,NA
07_WL,128,slots visible: 4,50 cents,0,2.386091029,loss,NA
07_WL,129,slots visible: 2,30 cents,1,1.644177993,win,NA
07_WL,130,slots visible: 0,40 cents,0,2.379777407,win,NA
07_WL,131,slots visible: 0,30 cents,1,2.288478857,win,NA
07_WL,132,slots visible: 1,40 cents,0,2.654912617,loss,NA
07_WL,133,slots visible: 0,50 cents,0,2.185867985,loss,NA
07_WL,134,slots visible: 3,30 cents,1,1.260722967,loss,NA
07_WL,135,slots visible: 3,50 cents,0,3.309303252,loss,NA
07_WL,136,slots visible: 3,10 cents,1,2.125447826,loss,NA
07_WL,137,slots visible: 5,30 cents,1,2.189094589,win,NA
07_WL,138,slots visible: 1,10 cents,1,1.984693059,loss,NA
07_WL,139,slots visible: 4,40 cents,1,2.132368177,win,NA
07_WL,140,slots visible: 4,40 cents,1,2.23265858,win,NA
07_WL,141,slots visible: 1,20 cents,0,3.011929901,loss,NA
07_WL,142,slots visible: 0,50 cents,0,2.127102916,win,NA
07_WL,143,slots visible: 1,20 cents,1,1.203869579,loss,NA
07_WL,144,slots visible: 0,50 cents,1,2.124219705,win,NA
07_WL,145,slots visible: 4,10 cents,1,1.70165248,win,NA
07_WL,146,slots visible: 5,30 cents,1,2.304976677,win,NA
07_WL,147,slots visible: 2,40 cents,1,2.811339124,win,NA
07_WL,148,slots visible: 4,50 cents,1,2.449653044,win,NA
07_WL,149,slots visible: 0,40 cents,0,2.016198414,loss,NA
07_WL,150,slots visible: 4,30 cents,1,1.707865225,win,NA
07_WL,151,slots visible: 2,40 cents,0,1.912275845,loss,NA
07_WL,152,slots visible: 3,40 cents,1,2.472760666,loss,NA
07_WL,153,slots visible: 5,40 cents,0,3.652131456,win,NA
07_WL,154,slots visible: 4,50 cents,1,4.209952708,win,NA
07_WL,155,slots visible: 0,10 cents,1,1.537973665,loss,NA
07_WL,156,slots visible: 3,20 cents,1,1.000000586,win,NA
07_WL,157,slots visible: 4,10 cents,1,1.766785129,win,NA
07_WL,158,slots visible: 1,50 cents,0,1.083183801,win,NA
07_WL,159,slots visible: 5,20 cents,1,1.620161011,loss,NA
07_WL,160,slots visible: 5,10 cents,1,2.230809947,win,NA
07_WL,161,slots visible: 3,40 cents,1,2.065554046,loss,NA
07_WL,162,slots visible: 5,50 cents,0,3.195838992,win,NA
07_WL,163,slots visible: 1,10 cents,1,1.95784565,win,NA
07_WL,164,slots visible: 5,40 cents,1,1.950676038,loss,NA
07_WL,165,slots visible: 2,20 cents,1,2.369663882,loss,NA
07_WL,166,slots visible: 2,30 cents,1,2.103351029,loss,NA
07_WL,167,slots visible: 5,30 cents,1,3.32390112,loss,NA
07_WL,168,slots visible: 2,30 cents,0,2.106100519,loss,NA
07_WL,169,slots visible: 3,40 cents,0,2.299907598,win,NA
07_WL,170,slots visible: 1,50 cents,0,2.416137477,loss,NA
07_WL,171,slots visible: 5,20 cents,1,2.070875904,loss,NA
07_WL,172,slots visible: 2,20 cents,1,1.697996268,loss,NA
07_WL,173,slots visible: 3,20 cents,1,1.742500705,loss,NA
07_WL,174,slots visible: 5,20 cents,1,2.163467677,win,NA
07_WL,175,slots visible: 3,20 cents,1,2.08332456,win,NA
07_WL,176,slots visible: 0,40 cents,0,3.827790024,win,NA
07_WL,177,slots visible: 3,30 cents,1,2.335237781,loss,NA
07_WL,178,slots visible: 4,50 cents,1,2.548678377,win,NA
07_WL,179,slots visible: 2,10 cents,1,1.950291884,win,NA
07_WL,180,slots visible: 2,50 cents,1,2.38638633,win,NA
08_RT,1,slots visible: 0,30 cents,1,2.186435126,win,NA
08_RT,2,slots visible: 4,50 cents,1,2.076155828,loss,NA
08_RT,3,slots visible: 5,20 cents,0,2.445129113,loss,NA
08_RT,4,slots visible: 2,40 cents,1,1.931697637,loss,NA
08_RT,5,slots visible: 4,40 cents,1,1.730197206,win,NA
08_RT,6,slots visible: 3,20 cents,0,2.014783494,loss,NA
08_RT,7,slots visible: 2,30 cents,1,4.16697228,win,NA
08_RT,8,slots visible: 5,20 cents,0,1.691372097,loss,NA
08_RT,9,slots visible: 1,40 cents,1,2.88403375,win,NA
08_RT,10,slots visible: 0,20 cents,0,1.866226287,win,NA
08_RT,11,slots visible: 4,40 cents,1,3.622950675,loss,NA
08_RT,12,slots visible: 0,20 cents,1,1.817258915,win,NA
08_RT,13,slots visible: 0,50 cents,1,1.619206489,loss,NA
08_RT,14,slots visible: 1,50 cents,1,3.363936756,loss,NA
08_RT,15,slots visible: 1,10 cents,1,2.628609182,win,NA
08_RT,16,slots visible: 1,30 cents,1,4.222879651,win,NA
08_RT,17,slots visible: 0,20 cents,1,1.745361629,loss,NA
08_RT,18,slots visible: 5,50 cents,0,2.381715188,win,NA
08_RT,19,slots visible: 0,40 cents,1,2.242141623,loss,NA
08_RT,20,slots visible: 5,20 cents,1,1.218770958,win,NA
08_RT,21,slots visible: 4,10 cents,1,1.704947117,win,NA
08_RT,22,slots visible: 2,40 cents,0,1.915419753,loss,NA
08_RT,23,slots visible: 3,30 cents,1,4.537925865,loss,NA
08_RT,24,slots visible: 4,20 cents,1,1.981617771,loss,NA
08_RT,25,slots visible: 5,50 cents,1,2.763111909,win,NA
08_RT,26,slots visible: 4,40 cents,1,2.611132795,win,NA
08_RT,27,slots visible: 2,10 cents,0,1.831771741,win,NA
08_RT,28,slots visible: 5,40 cents,0,2.17636119,win,NA
08_RT,29,slots visible: 2,50 cents,0,2.381092623,loss,NA
08_RT,30,slots visible: 2,20 cents,1,1.906002105,win,NA
08_RT,31,slots visible: 2,50 cents,1,2.199288171,win,NA
08_RT,32,slots visible: 5,10 cents,1,1.439046277,loss,NA
08_RT,33,slots visible: 5,30 cents,1,1.997829088,win,NA
08_RT,34,slots visible: 0,30 cents,0,1.375416522,win,NA
08_RT,35,slots visible: 4,30 cents,1,4.084904285,loss,NA
08_RT,36,slots visible: 4,50 cents,0,4.519410795,loss,NA
08_RT,37,slots visible: 1,20 cents,1,2.072019277,win,NA
08_RT,38,slots visible: 2,10 cents,1,1.881603607,loss,NA
08_RT,39,slots visible: 3,30 cents,1,2.434977465,win,NA
08_RT,40,slots visible: 3,20 cents,1,1.908800274,win,NA
08_RT,41,slots visible: 3,10 cents,1,1.896141653,loss,NA
08_RT,42,slots visible: 2,20 cents,1,1.708757577,win,NA
08_RT,43,slots visible: 5,10 cents,1,2.096367043,win,NA
08_RT,44,slots visible: 5,20 cents,1,1.858926473,loss,NA
08_RT,45,slots visible: 3,10 cents,1,1.28320861,win,NA
08_RT,46,slots visible: 2,20 cents,1,1.745450189,loss,NA
08_RT,47,slots visible: 5,30 cents,1,4.365983918,win,NA
08_RT,48,slots visible: 0,40 cents,1,1.830492301,win,NA
08_RT,49,slots visible: 2,20 cents,1,1.737384413,win,NA
08_RT,50,slots visible: 2,50 cents,0,1.327081098,win,NA
08_RT,51,slots visible: 3,30 cents,1,4.142105465,loss,NA
08_RT,52,slots visible: 4,40 cents,0,1.160948386,loss,NA
08_RT,53,slots visible: 2,40 cents,1,1.646588196,win,NA
08_RT,54,slots visible: 3,40 cents,0,1.700124366,loss,NA
08_RT,55,slots visible: 5,50 cents,1,2.179502165,win,NA
08_RT,56,slots visible: 3,20 cents,1,1.535829145,loss,NA
08_RT,57,slots visible: 1,50 cents,0,2.572296836,win,NA
08_RT,58,slots visible: 1,40 cents,99,5,loss,NA
08_RT,59,slots visible: 1,40 cents,1,1.073064705,win,NA
08_RT,60,slots visible: 1,50 cents,0,2.494933707,win,NA
08_RT,61,slots visible: 4,20 cents,1,1.434531142,win,NA
08_RT,62,slots visible: 0,50 cents,1,1.908961267,win,NA
08_RT,63,slots visible: 3,40 cents,0,2.239250494,win,NA
08_RT,64,slots visible: 4,10 cents,1,1.079768346,win,NA
08_RT,65,slots visible: 4,50 cents,1,2.693797842,loss,NA
08_RT,66,slots visible: 2,30 cents,1,1.83639567,loss,NA
08_RT,67,slots visible: 5,50 cents,1,1.581071685,loss,NA
08_RT,68,slots visible: 2,50 cents,1,2.017428588,loss,NA
08_RT,69,slots visible: 5,50 cents,1,1.911949461,loss,NA
08_RT,70,slots visible: 4,40 cents,1,1.986177186,loss,NA
08_RT,71,slots visible: 0,50 cents,1,1.804718179,loss,NA
08_RT,72,slots visible: 1,10 cents,1,1.492784788,loss,NA
08_RT,73,slots visible: 4,30 cents,1,1.907330517,win,NA
08_RT,74,slots visible: 3,20 cents,1,1.000015249,loss,NA
08_RT,75,slots visible: 2,30 cents,1,1.616141758,win,NA
08_RT,76,slots visible: 3,50 cents,1,3.052579597,win,NA
08_RT,77,slots visible: 0,40 cents,0,1.248832361,loss,NA
08_RT,78,slots visible: 0,10 cents,1,1.025556239,win,NA
08_RT,79,slots visible: 4,10 cents,1,1.000053078,loss,NA
08_RT,80,slots visible: 1,40 cents,0,1.342262236,win,NA
08_RT,81,slots visible: 5,20 cents,1,2.130459428,win,NA
08_RT,82,slots visible: 0,20 cents,1,1.08897339,win,NA
08_RT,83,slots visible: 3,50 cents,1,3.76931527,loss,NA
08_RT,84,slots visible: 1,10 cents,1,1.023847779,win,NA
08_RT,85,slots visible: 3,50 cents,1,1.316127418,win,NA
08_RT,86,slots visible: 3,50 cents,1,1.254697314,win,NA
08_RT,87,slots visible: 3,10 cents,1,1.000002346,loss,NA
08_RT,88,slots visible: 1,30 cents,1,1.000001759,loss,NA
08_RT,89,slots visible: 0,50 cents,0,2.559722963,win,NA
08_RT,90,slots visible: 3,40 cents,1,3.600313716,loss,NA
08_RT,91,slots visible: 3,40 cents,1,1.850676537,loss,NA
08_RT,92,slots visible: 4,20 cents,1,1.056924354,loss,NA
08_RT,93,slots visible: 5,10 cents,1,1.005410712,win,NA
08_RT,94,slots visible: 1,20 cents,1,1.000018768,loss,NA
08_RT,95,slots visible: 0,50 cents,1,1.044170721,loss,NA
08_RT,96,slots visible: 4,30 cents,1,1.028545606,win,NA
08_RT,97,slots visible: 2,20 cents,1,1.000048679,loss,NA
08_RT,98,slots visible: 0,30 cents,1,1.271267859,loss,NA
08_RT,99,slots visible: 0,10 cents,1,1.02567999,loss,NA
08_RT,100,slots visible: 2,10 cents,1,1.000065687,loss,NA
08_RT,101,slots visible: 2,30 cents,1,1.000022873,loss,NA
08_RT,102,slots visible: 1,50 cents,1,1.000034603,loss,NA
08_RT,103,slots visible: 2,30 cents,1,1.097223619,loss,NA
08_RT,104,slots visible: 0,40 cents,1,2.581910667,win,NA
08_RT,105,slots visible: 5,40 cents,1,1.000015835,loss,NA
08_RT,106,slots visible: 0,20 cents,1,1.786959981,loss,NA
08_RT,107,slots visible: 0,20 cents,1,1.672611872,loss,NA
08_RT,108,slots visible: 5,30 cents,1,1.000034603,loss,NA
08_RT,109,slots visible: 4,20 cents,1,3.556031855,loss,NA
08_RT,110,slots visible: 5,40 cents,1,1.061717487,win,NA
08_RT,111,slots visible: 0,40 cents,1,1.044370422,win,NA
08_RT,112,slots visible: 4,50 cents,1,4.430696343,win,NA
08_RT,113,slots visible: 1,30 cents,1,1.689048696,loss,NA
08_RT,114,slots visible: 4,50 cents,1,2.945551829,win,NA
08_RT,115,slots visible: 5,50 cents,1,3.515572477,loss,NA
08_RT,116,slots visible: 1,30 cents,1,1.260632647,win,NA
08_RT,117,slots visible: 4,30 cents,1,1.073019838,loss,NA
08_RT,118,slots visible: 4,50 cents,1,3.649896322,win,NA
08_RT,119,slots visible: 5,30 cents,1,2.27380973,loss,NA
08_RT,120,slots visible: 4,10 cents,1,1.168064627,loss,NA
08_RT,121,slots visible: 3,30 cents,1,2.373028899,win,NA
08_RT,122,slots visible: 4,20 cents,1,1.731231784,win,NA
08_RT,123,slots visible: 5,30 cents,1,2.393930126,loss,NA
08_RT,124,slots visible: 3,40 cents,1,2.047435153,win,NA
08_RT,125,slots visible: 1,10 cents,1,1.086627995,win,NA
08_RT,126,slots visible: 3,10 cents,1,1.101102992,win,NA
08_RT,127,slots visible: 0,10 cents,1,1.018835003,win,NA
08_RT,128,slots visible: 4,10 cents,1,1.000157767,win,NA
08_RT,129,slots visible: 3,20 cents,1,1.832171144,win,NA
08_RT,130,slots visible: 4,30 cents,1,4.354923496,win,NA
08_RT,131,slots visible: 5,40 cents,0,2.069016128,loss,NA
08_RT,132,slots visible: 1,10 cents,1,1.502031766,loss,NA
08_RT,133,slots visible: 1,40 cents,0,2.156369031,loss,NA
08_RT,134,slots visible: 5,40 cents,1,2.632465389,loss,NA
08_RT,135,slots visible: 5,20 cents,1,1.000007038,win,NA
08_RT,136,slots visible: 1,20 cents,1,2.576298787,loss,NA
08_RT,137,slots visible: 3,20 cents,1,1.959630062,win,NA
08_RT,138,slots visible: 4,10 cents,1,1.786060004,loss,NA
08_RT,139,slots visible: 0,30 cents,1,1.814401803,loss,NA
08_RT,140,slots visible: 3,30 cents,1,2.052764636,win,NA
08_RT,141,slots visible: 1,50 cents,1,2.801843472,win,NA
08_RT,142,slots visible: 2,50 cents,0,1.889756478,win,NA
08_RT,143,slots visible: 2,10 cents,1,1.915953757,win,NA
08_RT,144,slots visible: 2,40 cents,1,4.188457948,loss,NA
08_RT,145,slots visible: 3,10 cents,1,1.897008493,win,NA
08_RT,146,slots visible: 3,10 cents,1,2.125390643,loss,NA
08_RT,147,slots visible: 3,40 cents,1,1.189898967,win,NA
08_RT,148,slots visible: 0,10 cents,1,1.06620095,loss,NA
08_RT,149,slots visible: 2,40 cents,1,3.956488793,win,NA
08_RT,150,slots visible: 5,10 cents,1,2.303257952,loss,NA
08_RT,151,slots visible: 2,10 cents,1,1.858647301,loss,NA
08_RT,152,slots visible: 5,10 cents,1,1.839962148,loss,NA
08_RT,153,slots visible: 5,10 cents,1,1.231569752,win,NA
08_RT,154,slots visible: 1,10 cents,1,1.00000997,loss,NA
08_RT,155,slots visible: 2,10 cents,1,1.091466288,win,NA
08_RT,156,slots visible: 0,50 cents,1,3.777578695,win,NA
08_RT,157,slots visible: 4,40 cents,0,1.607670713,win,NA
08_RT,158,slots visible: 4,30 cents,1,1.022585641,loss,NA
08_RT,159,slots visible: 2,40 cents,1,3.124749603,win,NA
08_RT,160,slots visible: 0,10 cents,1,1.781134616,win,NA
08_RT,161,slots visible: 1,20 cents,1,1.025914002,win,NA
08_RT,162,slots visible: 1,30 cents,1,1.748417562,win,NA
08_RT,163,slots visible: 1,20 cents,1,1.258457336,loss,NA
08_RT,164,slots visible: 2,20 cents,1,1.0867494,loss,NA
08_RT,165,slots visible: 5,30 cents,1,1.053090141,win,NA
08_RT,166,slots visible: 1,20 cents,1,1.757421145,win,NA
08_RT,167,slots visible: 0,30 cents,0,2.950175758,loss,NA
08_RT,168,slots visible: 2,50 cents,0,3.826388887,loss,NA
08_RT,169,slots visible: 3,50 cents,0,2.644637805,loss,NA
08_RT,170,slots visible: 5,40 cents,1,1.111334696,win,NA
08_RT,171,slots visible: 4,20 cents,1,1.147619108,win,NA
08_RT,172,slots visible: 0,10 cents,1,1.518085902,loss,NA
08_RT,173,slots visible: 1,30 cents,1,1.224577555,loss,NA
08_RT,174,slots visible: 1,40 cents,0,1.364850516,loss,NA
08_RT,175,slots visible: 2,30 cents,1,1.333290324,win,NA
08_RT,176,slots visible: 3,50 cents,1,2.941496214,loss,NA
08_RT,177,slots visible: 0,40 cents,1,1.042192765,loss,NA
08_RT,178,slots visible: 0,30 cents,1,1.442502787,win,NA
08_RT,179,slots visible: 1,50 cents,1,1.096896355,loss,NA
08_RT,180,slots visible: 3,30 cents,1,1.925712452,loss,NA
10_DM,1,slots visible: 0,10 cents,1,3.458082155,loss,NA
10_DM,2,slots visible: 5,50 cents,1,3.957406365,loss,NA
10_DM,3,slots visible: 1,50 cents,1,4.49990924,win,NA
10_DM,4,slots visible: 1,40 cents,0,3.150495867,loss,NA
10_DM,5,slots visible: 2,50 cents,99,5,win,NA
10_DM,6,slots visible: 2,50 cents,1,2.832394892,loss,NA
10_DM,7,slots visible: 0,40 cents,0,3.287837231,loss,NA
10_DM,8,slots visible: 2,10 cents,1,2.670452396,loss,NA
10_DM,9,slots visible: 2,40 cents,1,3.370534828,loss,NA
10_DM,10,slots visible: 1,30 cents,0,2.034632254,loss,NA
10_DM,11,slots visible: 1,10 cents,1,3.594509172,loss,NA
10_DM,12,slots visible: 0,40 cents,0,3.398054654,win,NA
10_DM,13,slots visible: 4,50 cents,1,2.878391959,loss,NA
10_DM,14,slots visible: 5,40 cents,1,2.558887501,loss,NA
10_DM,15,slots visible: 3,30 cents,1,4.445713555,win,NA
10_DM,16,slots visible: 1,20 cents,0,1.751766451,loss,NA
10_DM,17,slots visible: 3,30 cents,1,3.346281195,loss,NA
10_DM,18,slots visible: 3,40 cents,0,2.51850554,win,NA
10_DM,19,slots visible: 2,20 cents,1,3.629958415,loss,NA
10_DM,20,slots visible: 5,30 cents,1,2.545653821,win,NA
10_DM,21,slots visible: 4,50 cents,1,4.340866963,loss,NA
10_DM,22,slots visible: 1,50 cents,1,3.906413825,loss,NA
10_DM,23,slots visible: 0,50 cents,0,4.151227813,loss,NA
10_DM,24,slots visible: 0,30 cents,0,1.72963769,loss,NA
10_DM,25,slots visible: 5,50 cents,1,4.191895104,win,NA
10_DM,26,slots visible: 1,50 cents,1,4.209628083,win,NA
10_DM,27,slots visible: 4,10 cents,0,3.536926477,win,NA
10_DM,28,slots visible: 2,50 cents,0,2.470527292,loss,NA
10_DM,29,slots visible: 3,30 cents,1,2.432274602,win,NA
10_DM,30,slots visible: 5,10 cents,1,4.947007804,win,NA
10_DM,31,slots visible: 1,10 cents,1,4.599926336,win,NA
10_DM,32,slots visible: 2,30 cents,0,2.033171001,loss,NA
10_DM,33,slots visible: 3,50 cents,0,4.147000062,loss,NA
10_DM,34,slots visible: 4,30 cents,1,3.774401064,loss,NA
10_DM,35,slots visible: 4,40 cents,1,1.012773868,loss,NA
10_DM,36,slots visible: 1,10 cents,0,2.002240412,win,NA
10_DM,37,slots visible: 0,30 cents,1,3.889713957,win,NA
10_DM,38,slots visible: 3,30 cents,0,3.570091907,loss,NA
10_DM,39,slots visible: 1,40 cents,1,4.560524702,loss,NA
10_DM,40,slots visible: 5,40 cents,1,1.839906137,loss,NA
10_DM,41,slots visible: 5,20 cents,1,4.042339096,win,NA
10_DM,42,slots visible: 0,20 cents,1,2.930926102,win,NA
10_DM,43,slots visible: 1,40 cents,0,2.497346842,win,NA
10_DM,44,slots visible: 3,10 cents,1,4.621992929,loss,NA
10_DM,45,slots visible: 1,20 cents,1,3.850674191,loss,NA
10_DM,46,slots visible: 1,20 cents,1,3.298817596,loss,NA
10_DM,47,slots visible: 3,50 cents,1,3.920412588,loss,NA
10_DM,48,slots visible: 4,30 cents,0,1.00003431,loss,NA
10_DM,49,slots visible: 1,20 cents,0,1.539287121,win,NA
10_DM,50,slots visible: 1,50 cents,1,2.751703696,loss,NA
10_DM,51,slots visible: 5,20 cents,1,4.63599785,win,NA
10_DM,52,slots visible: 4,40 cents,1,3.852648921,win,NA
10_DM,53,slots visible: 1,30 cents,0,2.563156307,win,NA
10_DM,54,slots visible: 2,30 cents,0,2.649600435,win,NA
10_DM,55,slots visible: 4,10 cents,99,5,win,NA
10_DM,56,slots visible: 4,40 cents,1,3.262309143,loss,NA
10_DM,57,slots visible: 1,10 cents,0,1.931765084,win,NA
10_DM,58,slots visible: 0,20 cents,1,4.082499361,loss,NA
10_DM,59,slots visible: 4,30 cents,1,4.354348731,win,NA
10_DM,60,slots visible: 4,40 cents,1,3.921501416,loss,NA
10_DM,61,slots visible: 3,50 cents,1,3.706578747,win,NA
10_DM,62,slots visible: 0,50 cents,1,3.951475432,loss,NA
10_DM,63,slots visible: 3,40 cents,0,4.081941604,win,NA
10_DM,64,slots visible: 2,10 cents,1,3.362459081,win,NA
10_DM,65,slots visible: 2,10 cents,0,4.67496665,win,NA
10_DM,66,slots visible: 1,10 cents,0,2.971564655,loss,NA
10_DM,67,slots visible: 5,50 cents,0,3.505696482,loss,NA
10_DM,68,slots visible: 4,40 cents,1,4.372996056,win,NA
10_DM,69,slots visible: 0,10 cents,0,2.09104841,win,NA
10_DM,70,slots visible: 0,20 cents,1,4.318976026,win,NA
10_DM,71,slots visible: 5,10 cents,0,3.323941589,win,NA
10_DM,72,slots visible: 3,10 cents,0,1.586741922,loss,NA
10_DM,73,slots visible: 2,10 cents,0,4.15277792,win,NA
10_DM,74,slots visible: 4,10 cents,1,3.555610458,loss,NA
10_DM,75,slots visible: 0,40 cents,1,2.779751074,loss,NA
10_DM,76,slots visible: 5,30 cents,1,4.43965154,loss,NA
10_DM,77,slots visible: 5,50 cents,1,1.697232358,win,NA
10_DM,78,slots visible: 3,10 cents,0,2.431009825,win,NA
10_DM,79,slots visible: 3,20 cents,1,3.985542011,loss,NA
10_DM,80,slots visible: 4,50 cents,1,3.210286424,win,NA
10_DM,81,slots visible: 2,50 cents,99,5,win,NA
10_DM,82,slots visible: 5,50 cents,0,2.230742793,loss,NA
10_DM,83,slots visible: 4,20 cents,1,4.271834707,loss,NA
10_DM,84,slots visible: 3,20 cents,1,3.650450267,loss,NA
10_DM,85,slots visible: 4,30 cents,0,1.660196646,loss,NA
10_DM,86,slots visible: 3,40 cents,1,4.111756093,loss,NA
10_DM,87,slots visible: 1,30 cents,0,1.475027763,win,NA
10_DM,88,slots visible: 5,10 cents,1,4.410769579,loss,NA
10_DM,89,slots visible: 5,50 cents,1,2.603042972,win,NA
10_DM,90,slots visible: 3,20 cents,1,4.26062209,win,NA
10_DM,91,slots visible: 1,20 cents,0,1.071316362,win,NA
10_DM,92,slots visible: 0,20 cents,1,4.163409614,win,NA
10_DM,93,slots visible: 0,20 cents,0,2.300972087,loss,NA
10_DM,94,slots visible: 4,20 cents,0,4.304691347,loss,NA
10_DM,95,slots visible: 2,30 cents,0,3.852880293,win,NA
10_DM,96,slots visible: 4,40 cents,0,4.691435732,win,NA
10_DM,97,slots visible: 5,30 cents,1,1.297994157,win,NA
10_DM,98,slots visible: 0,20 cents,0,2.886862417,loss,NA
10_DM,99,slots visible: 2,20 cents,1,3.335070923,win,NA
10_DM,100,slots visible: 3,10 cents,0,4.039147682,win,NA
10_DM,101,slots visible: 0,10 cents,0,4.046953348,loss,NA
10_DM,102,slots visible: 4,20 cents,1,2.445320017,win,NA
10_DM,103,slots visible: 1,40 cents,1,4.069026098,win,NA
10_DM,104,slots visible: 2,30 cents,0,1.791733759,loss,NA
10_DM,105,slots visible: 5,10 cents,1,4.866486398,win,NA
10_DM,106,slots visible: 4,10 cents,1,4.263981828,win,NA
10_DM,107,slots visible: 3,20 cents,99,5,loss,NA
10_DM,108,slots visible: 0,30 cents,0,3.271235309,win,NA
10_DM,109,slots visible: 3,40 cents,1,3.60218493,loss,NA
10_DM,110,slots visible: 1,30 cents,1,1.315894873,win,NA
10_DM,111,slots visible: 5,40 cents,1,3.811481056,win,NA
10_DM,112,slots visible: 2,20 cents,0,4.068780943,win,NA
10_DM,113,slots visible: 5,20 cents,1,3.609356008,loss,NA
10_DM,114,slots visible: 3,30 cents,1,2.17566414,loss,NA
10_DM,115,slots visible: 0,40 cents,1,1.188618648,win,NA
10_DM,116,slots visible: 1,50 cents,1,3.805866243,loss,NA
10_DM,117,slots visible: 2,20 cents,1,1.533492547,win,NA
10_DM,118,slots visible: 2,30 cents,0,2.062492247,win,NA
10_DM,119,slots visible: 3,10 cents,0,1.970530664,loss,NA
10_DM,120,slots visible: 0,50 cents,1,3.36061426,win,NA
10_DM,121,slots visible: 5,20 cents,0,2.453015715,loss,NA
10_DM,122,slots visible: 2,40 cents,0,3.603315693,win,NA
10_DM,123,slots visible: 3,20 cents,1,2.787095461,win,NA
10_DM,124,slots visible: 4,20 cents,1,3.405756217,loss,NA
10_DM,125,slots visible: 5,30 cents,1,2.667749826,win,NA
10_DM,126,slots visible: 5,40 cents,1,3.785337442,win,NA
10_DM,127,slots visible: 0,10 cents,0,3.765127986,win,NA
10_DM,128,slots visible: 0,30 cents,1,3.451474405,loss,NA
10_DM,129,slots visible: 1,30 cents,1,3.601854146,loss,NA
10_DM,130,slots visible: 3,50 cents,1,2.528622584,loss,NA
10_DM,131,slots visible: 1,40 cents,0,1.034174495,win,NA
10_DM,132,slots visible: 3,40 cents,1,3.653048735,loss,NA
10_DM,133,slots visible: 2,40 cents,1,1.570893059,loss,NA
10_DM,134,slots visible: 2,10 cents,0,1.425629317,loss,NA
10_DM,135,slots visible: 5,40 cents,1,3.692222808,win,NA
10_DM,136,slots visible: 4,50 cents,1,1.520973805,loss,NA
10_DM,137,slots visible: 1,30 cents,1,3.204189805,loss,NA
10_DM,138,slots visible: 2,20 cents,0,1.000019941,loss,NA
10_DM,139,slots visible: 5,20 cents,1,3.659825688,win,NA
10_DM,140,slots visible: 2,30 cents,1,4.208376209,loss,NA
10_DM,141,slots visible: 2,40 cents,1,3.599163013,loss,NA
10_DM,142,slots visible: 4,10 cents,1,2.463296098,loss,NA
10_DM,143,slots visible: 4,30 cents,1,3.731541453,win,NA
10_DM,144,slots visible: 3,40 cents,0,1.409956403,win,NA
10_DM,145,slots visible: 5,10 cents,1,3.537132924,loss,NA
10_DM,146,slots visible: 3,50 cents,1,1.000002639,win,NA
10_DM,147,slots visible: 0,10 cents,0,2.367647218,win,NA
10_DM,148,slots visible: 5,40 cents,1,3.080980925,loss,NA
10_DM,149,slots visible: 1,40 cents,1,1.025580872,loss,NA
10_DM,150,slots visible: 4,50 cents,1,3.988916705,win,NA
10_DM,151,slots visible: 5,30 cents,1,3.391359517,loss,NA
10_DM,152,slots visible: 4,50 cents,1,3.282849089,win,NA
10_DM,153,slots visible: 1,10 cents,1,4.226117398,loss,NA
10_DM,154,slots visible: 2,40 cents,0,1.062018066,win,NA
10_DM,155,slots visible: 3,20 cents,0,3.780197983,win,NA
10_DM,156,slots visible: 0,50 cents,1,3.849380089,win,NA
10_DM,157,slots visible: 3,30 cents,0,1.905038493,win,NA
10_DM,158,slots visible: 0,30 cents,1,3.828692347,loss,NA
10_DM,159,slots visible: 2,50 cents,0,3.160975658,win,NA
10_DM,160,slots visible: 5,30 cents,0,1.937529453,loss,NA
10_DM,161,slots visible: 3,50 cents,1,4.264753949,win,NA
10_DM,162,slots visible: 4,30 cents,0,1.268512211,win,NA
10_DM,163,slots visible: 5,10 cents,0,2.206963341,loss,NA
10_DM,164,slots visible: 2,20 cents,1,4.171745765,loss,NA
10_DM,165,slots visible: 2,40 cents,0,1.987134346,win,NA
10_DM,166,slots visible: 3,10 cents,0,4.476949122,win,NA
10_DM,167,slots visible: 0,30 cents,1,3.181807092,win,NA
10_DM,168,slots visible: 4,20 cents,0,1.230129026,win,NA
10_DM,169,slots visible: 2,50 cents,0,2.67137554,loss,NA
10_DM,170,slots visible: 0,40 cents,0,3.804960695,loss,NA
10_DM,171,slots visible: 0,50 cents,1,4.852564759,win,NA
10_DM,172,slots visible: 1,20 cents,0,2.370773825,win,NA
10_DM,173,slots visible: 0,40 cents,1,4.897470065,win,NA
10_DM,174,slots visible: 4,10 cents,0,2.927054354,loss,NA
10_DM,175,slots visible: 5,20 cents,99,5,loss,NA
10_DM,176,slots visible: 1,50 cents,1,4.165805154,win,NA
10_DM,177,slots visible: 0,50 cents,1,4.198320747,loss,NA
10_DM,178,slots visible: 4,20 cents,0,1.05353881,win,NA
10_DM,179,slots visible: 0,10 cents,1,3.076998622,loss,NA
10_DM,180,slots visible: 2,10 cents,0,1.000071259,loss,NA
11_WL,1,slots visible: 4,30 cents,1,1.298990319,loss,NA
11_WL,2,slots visible: 5,30 cents,1,1.220450094,win,NA
11_WL,3,slots visible: 4,10 cents,1,2.001764764,loss,NA
11_WL,4,slots visible: 4,20 cents,1,1.314055917,loss,NA
11_WL,5,slots visible: 5,30 cents,1,1.602134198,win,NA
11_WL,6,slots visible: 3,20 cents,1,1.717031266,win,NA
11_WL,7,slots visible: 0,40 cents,0,2.555812799,loss,NA
11_WL,8,slots visible: 1,10 cents,1,2.190069051,loss,NA
11_WL,9,slots visible: 3,40 cents,1,1.013979115,win,NA
11_WL,10,slots visible: 4,50 cents,0,3.634747442,win,NA
11_WL,11,slots visible: 3,10 cents,1,1.081854803,win,NA
11_WL,12,slots visible: 4,50 cents,1,1.227477188,win,NA
11_WL,13,slots visible: 2,30 cents,1,3.115675641,loss,NA
11_WL,14,slots visible: 3,40 cents,1,2.759163036,win,NA
11_WL,15,slots visible: 4,40 cents,1,2.91901409,win,NA
11_WL,16,slots visible: 2,40 cents,0,2.703514602,loss,NA
11_WL,17,slots visible: 4,30 cents,1,1.463677026,loss,NA
11_WL,18,slots visible: 3,50 cents,1,1.852037499,win,NA
11_WL,19,slots visible: 1,50 cents,0,2.73867089,loss,NA
11_WL,20,slots visible: 2,20 cents,0,2.430892232,loss,NA
11_WL,21,slots visible: 0,40 cents,0,2.095477329,win,NA
11_WL,22,slots visible: 2,10 cents,0,1.01572218,win,NA
11_WL,23,slots visible: 5,20 cents,1,1.270428291,win,NA
11_WL,24,slots visible: 0,50 cents,1,2.30447493,loss,NA
11_WL,25,slots visible: 5,50 cents,1,1.460896452,loss,NA
11_WL,26,slots visible: 1,20 cents,0,1.408469344,loss,NA
11_WL,27,slots visible: 0,20 cents,0,1.641654597,win,NA
11_WL,28,slots visible: 0,10 cents,0,2.450155964,win,NA
11_WL,29,slots visible: 5,10 cents,1,1.344614961,win,NA
11_WL,30,slots visible: 3,50 cents,1,1.092799685,loss,NA
11_WL,31,slots visible: 4,40 cents,1,1.075277552,loss,NA
11_WL,32,slots visible: 1,40 cents,1,2.45093307,loss,NA
11_WL,33,slots visible: 1,50 cents,1,1.538502097,win,NA
11_WL,34,slots visible: 4,10 cents,1,2.592530924,win,NA
11_WL,35,slots visible: 4,50 cents,0,2.78679019,loss,NA
11_WL,36,slots visible: 0,50 cents,0,1.911327482,loss,NA
11_WL,37,slots visible: 1,40 cents,0,1.51376871,loss,NA
11_WL,38,slots visible: 1,30 cents,0,1.030213305,win,NA
11_WL,39,slots visible: 3,50 cents,1,2.016361459,win,NA
11_WL,40,slots visible: 2,50 cents,1,3.223125099,loss,NA
11_WL,41,slots visible: 4,30 cents,1,1.219324023,win,NA
11_WL,42,slots visible: 3,10 cents,1,2.158980988,loss,NA
11_WL,43,slots visible: 2,20 cents,1,1.34424371,win,NA
11_WL,44,slots visible: 1,40 cents,1,2.516469814,win,NA
11_WL,45,slots visible: 4,10 cents,1,1.175136001,loss,NA
11_WL,46,slots visible: 0,40 cents,0,1.877530104,win,NA
11_WL,47,slots visible: 0,10 cents,1,1.271764914,loss,NA
11_WL,48,slots visible: 5,10 cents,1,2.17769576,loss,NA
11_WL,49,slots visible: 5,10 cents,1,2.414526374,win,NA
11_WL,50,slots visible: 4,10 cents,0,1.845106884,win,NA
11_WL,51,slots visible: 0,40 cents,0,2.069491482,loss,NA
11_WL,52,slots visible: 5,40 cents,0,2.510613952,win,NA
11_WL,53,slots visible: 5,30 cents,1,1.616571953,loss,NA
11_WL,54,slots visible: 2,40 cents,1,1.207178585,win,NA
11_WL,55,slots visible: 0,30 cents,1,1.017132114,win,NA
11_WL,56,slots visible: 2,10 cents,0,1.997392149,loss,NA
11_WL,57,slots visible: 2,40 cents,1,1.511967583,win,NA
11_WL,58,slots visible: 3,50 cents,1,2.386293077,win,NA
11_WL,59,slots visible: 4,50 cents,0,4.038568517,loss,NA
11_WL,60,slots visible: 3,30 cents,1,3.70837137,loss,NA
11_WL,61,slots visible: 5,30 cents,0,4.146440839,win,NA
11_WL,62,slots visible: 1,50 cents,1,2.011455719,loss,NA
11_WL,63,slots visible: 1,20 cents,1,2.385691333,loss,NA
11_WL,64,slots visible: 4,10 cents,1,1.001609636,loss,NA
11_WL,65,slots visible: 3,50 cents,1,2.427880286,loss,NA
11_WL,66,slots visible: 2,10 cents,0,2.606272509,loss,NA
11_WL,67,slots visible: 2,30 cents,0,1.094777641,win,NA
11_WL,68,slots visible: 0,40 cents,1,1.23721037,loss,NA
11_WL,69,slots visible: 0,20 cents,0,1.100740538,win,NA
11_WL,70,slots visible: 5,40 cents,1,1.666071863,loss,NA
11_WL,71,slots visible: 5,20 cents,0,2.88460529,loss,NA
11_WL,72,slots visible: 0,10 cents,0,1.340670194,win,NA
11_WL,73,slots visible: 4,20 cents,1,1.249199214,win,NA
11_WL,74,slots visible: 0,30 cents,0,3.631520545,loss,NA
11_WL,75,slots visible: 5,40 cents,0,1.810096047,loss,NA
11_WL,76,slots visible: 3,40 cents,1,1.424396797,loss,NA
11_WL,77,slots visible: 3,20 cents,1,1.636767918,win,NA
11_WL,78,slots visible: 0,10 cents,1,2.805441327,win,NA
11_WL,79,slots visible: 0,20 cents,1,1.900363832,win,NA
11_WL,80,slots visible: 1,50 cents,99,5,loss,NA
11_WL,81,slots visible: 1,20 cents,1,2.966498215,loss,NA
11_WL,82,slots visible: 0,30 cents,0,2.267663552,win,NA
11_WL,83,slots visible: 0,50 cents,1,2.142300768,loss,NA
11_WL,84,slots visible: 1,10 cents,0,1.475868211,win,NA
11_WL,85,slots visible: 4,30 cents,1,1.093996722,win,NA
11_WL,86,slots visible: 4,20 cents,1,1.043937589,win,NA
11_WL,87,slots visible: 2,20 cents,1,1.226540261,win,NA
11_WL,88,slots visible: 4,40 cents,0,1.207166562,win,NA
11_WL,89,slots visible: 3,30 cents,0,1.382110486,win,NA
11_WL,90,slots visible: 4,20 cents,1,1.204124118,loss,NA
11_WL,91,slots visible: 1,10 cents,0,1.498573497,win,NA
11_WL,92,slots visible: 5,50 cents,1,1.079949573,win,NA
11_WL,93,slots visible: 1,30 cents,1,1.754364038,loss,NA
11_WL,94,slots visible: 5,20 cents,1,1.02346685,win,NA
11_WL,95,slots visible: 5,10 cents,1,1.475961757,loss,NA
11_WL,96,slots visible: 2,50 cents,1,1.142331266,loss,NA
11_WL,97,slots visible: 1,40 cents,0,2.706733582,win,NA
11_WL,98,slots visible: 2,50 cents,1,1.165086404,win,NA
11_WL,99,slots visible: 0,10 cents,1,1.979496711,loss,NA
11_WL,100,slots visible: 3,20 cents,1,1.480937583,loss,NA
11_WL,101,slots visible: 5,10 cents,1,1.000049266,win,NA
11_WL,102,slots visible: 2,30 cents,1,1.095894914,loss,NA
11_WL,103,slots visible: 4,10 cents,1,1.791158407,win,NA
11_WL,104,slots visible: 5,50 cents,1,1.24953381,win,NA
11_WL,105,slots visible: 0,50 cents,1,2.687846087,win,NA
11_WL,106,slots visible: 5,40 cents,1,1.080453373,loss,NA
11_WL,107,slots visible: 4,40 cents,0,1.674610941,win,NA
11_WL,108,slots visible: 0,20 cents,0,1.221099638,loss,NA
11_WL,109,slots visible: 3,40 cents,1,2.447440784,win,NA
11_WL,110,slots visible: 5,50 cents,1,2.175840675,loss,NA
11_WL,111,slots visible: 2,20 cents,0,1.70211845,loss,NA
11_WL,112,slots visible: 0,50 cents,1,1.367277726,win,NA
11_WL,113,slots visible: 5,50 cents,1,2.334682077,loss,NA
11_WL,114,slots visible: 0,30 cents,0,1.988467156,win,NA
11_WL,115,slots visible: 3,10 cents,0,1.017030357,loss,NA
11_WL,116,slots visible: 0,30 cents,0,1.800429432,loss,NA
11_WL,117,slots visible: 2,40 cents,1,1.263623773,loss,NA
11_WL,118,slots visible: 3,10 cents,1,3.140344513,win,NA
11_WL,119,slots visible: 2,30 cents,0,2.448860396,win,NA
11_WL,120,slots visible: 4,20 cents,1,2.337955307,win,NA
11_WL,121,slots visible: 4,30 cents,0,2.179264635,loss,NA
11_WL,122,slots visible: 3,30 cents,0,2.559991578,loss,NA
11_WL,123,slots visible: 1,10 cents,0,1.632091791,win,NA
11_WL,124,slots visible: 1,20 cents,0,1.000050732,win,NA
11_WL,125,slots visible: 5,40 cents,1,1.072698145,win,NA
11_WL,126,slots visible: 5,50 cents,1,1.99469515,win,NA
11_WL,127,slots visible: 3,10 cents,1,2.203150535,win,NA
11_WL,128,slots visible: 3,50 cents,1,1.395433313,loss,NA
11_WL,129,slots visible: 2,20 cents,0,1.493793267,loss,NA
11_WL,130,slots visible: 2,40 cents,1,2.050677299,loss,NA
11_WL,131,slots visible: 2,50 cents,0,2.363953471,win,NA
11_WL,132,slots visible: 3,30 cents,1,1.813165177,win,NA
11_WL,133,slots visible: 1,40 cents,0,1.154236241,win,NA
11_WL,134,slots visible: 1,20 cents,0,1.220597011,win,NA
11_WL,135,slots visible: 2,20 cents,1,1.297171304,win,NA
11_WL,136,slots visible: 4,40 cents,0,2.493613506,loss,NA
11_WL,137,slots visible: 3,20 cents,1,1.039030969,loss,NA
11_WL,138,slots visible: 1,30 cents,0,2.841540406,win,NA
11_WL,139,slots visible: 1,10 cents,0,1.216263104,loss,NA
11_WL,140,slots visible: 0,40 cents,0,1.372501347,win,NA
11_WL,141,slots visible: 4,30 cents,1,1.171183902,win,NA
11_WL,142,slots visible: 1,40 cents,0,1.153837131,loss,NA
11_WL,143,slots visible: 1,50 cents,0,1.000050145,win,NA
11_WL,144,slots visible: 5,20 cents,1,1.196161564,win,NA
11_WL,145,slots visible: 4,50 cents,0,1.52718567,loss,NA
11_WL,146,slots visible: 3,30 cents,1,1.206973019,loss,NA
11_WL,147,slots visible: 2,30 cents,0,1.144945276,win,NA
11_WL,148,slots visible: 2,50 cents,1,1.669410194,loss,NA
11_WL,149,slots visible: 5,20 cents,1,1.27971955,loss,NA
11_WL,150,slots visible: 1,20 cents,0,1.720739969,win,NA
11_WL,151,slots visible: 2,50 cents,1,1.000082403,win,NA
11_WL,152,slots visible: 1,30 cents,0,1.290045972,loss,NA
11_WL,153,slots visible: 4,40 cents,1,1.867370539,loss,NA
11_WL,154,slots visible: 0,20 cents,1,1.268506933,loss,NA
11_WL,155,slots visible: 4,20 cents,1,1.378082729,loss,NA
11_WL,156,slots visible: 5,30 cents,1,2.408870507,loss,NA
11_WL,157,slots visible: 1,50 cents,1,1.070897898,win,NA
11_WL,158,slots visible: 5,20 cents,0,1.770529608,loss,NA
11_WL,159,slots visible: 0,10 cents,1,2.048986727,loss,NA
11_WL,160,slots visible: 3,10 cents,1,1.968078234,loss,NA
11_WL,161,slots visible: 0,50 cents,1,2.07759802,win,NA
11_WL,162,slots visible: 3,40 cents,0,1.981860287,loss,NA
11_WL,163,slots visible: 2,10 cents,0,1.192645525,win,NA
11_WL,164,slots visible: 3,20 cents,0,1.993666437,win,NA
11_WL,165,slots visible: 2,10 cents,0,1.410737321,loss,NA
11_WL,166,slots visible: 2,30 cents,1,1.179458178,loss,NA
11_WL,167,slots visible: 5,40 cents,1,2.016932413,win,NA
11_WL,168,slots visible: 0,30 cents,0,2.076425323,loss,NA
11_WL,169,slots visible: 1,30 cents,0,2.108437409,loss,NA
11_WL,170,slots visible: 5,30 cents,1,1.710440819,loss,NA
11_WL,171,slots visible: 3,40 cents,1,1.778583655,loss,NA
11_WL,172,slots visible: 5,10 cents,1,1.288792925,loss,NA
11_WL,173,slots visible: 0,20 cents,1,1.00006862,loss,NA
11_WL,174,slots visible: 1,30 cents,1,1.329665783,win,NA
11_WL,175,slots visible: 3,20 cents,1,2.280695185,loss,NA
11_WL,176,slots visible: 2,10 cents,0,1.233039802,win,NA
11_WL,177,slots visible: 1,10 cents,0,1.150083854,loss,NA
11_WL,178,slots visible: 3,30 cents,1,1.000036363,win,NA
11_WL,179,slots visible: 2,40 cents,0,1.922751531,win,NA
11_WL,180,slots visible: 4,50 cents,1,1.091927567,win,NA
12_YK,1,slots visible: 5,40 cents,1,1.908569999,loss,NA
12_YK,2,slots visible: 1,50 cents,1,1.37137846,loss,NA
12_YK,3,slots visible: 4,40 cents,1,2.570805928,loss,NA
12_YK,4,slots visible: 4,40 cents,0,2.497984673,loss,NA
12_YK,5,slots visible: 1,10 cents,1,1.066340539,loss,NA
12_YK,6,slots visible: 4,30 cents,1,2.787357149,win,NA
12_YK,7,slots visible: 5,10 cents,1,1.812977971,loss,NA
12_YK,8,slots visible: 4,10 cents,1,2.957021416,win,NA
12_YK,9,slots visible: 1,20 cents,0,1.357355774,loss,NA
12_YK,10,slots visible: 2,40 cents,1,1.411945103,win,NA
12_YK,11,slots visible: 1,40 cents,1,2.057564007,loss,NA
12_YK,12,slots visible: 5,20 cents,0,2.470692355,win,NA
12_YK,13,slots visible: 4,30 cents,1,2.193829713,win,NA
12_YK,14,slots visible: 2,20 cents,0,2.458696872,loss,NA
12_YK,15,slots visible: 1,20 cents,1,2.431120105,win,NA
12_YK,16,slots visible: 5,50 cents,1,1.240853906,win,NA
12_YK,17,slots visible: 1,30 cents,1,2.047318904,win,NA
12_YK,18,slots visible: 4,30 cents,0,2.749429418,win,NA
12_YK,19,slots visible: 1,50 cents,1,1.623296209,loss,NA
12_YK,20,slots visible: 5,40 cents,1,1.218482826,win,NA
12_YK,21,slots visible: 3,50 cents,1,2.975575325,win,NA
12_YK,22,slots visible: 5,30 cents,1,2.173101685,win,NA
12_YK,23,slots visible: 0,30 cents,0,2.258814287,loss,NA
12_YK,24,slots visible: 4,40 cents,1,2.382896833,win,NA
12_YK,25,slots visible: 0,30 cents,0,2.904671013,loss,NA
12_YK,26,slots visible: 4,20 cents,1,1.589839293,win,NA
12_YK,27,slots visible: 2,10 cents,0,2.607825479,win,NA
12_YK,28,slots visible: 0,20 cents,1,3.19980986,win,NA
12_YK,29,slots visible: 3,20 cents,1,1.594392509,loss,NA
12_YK,30,slots visible: 2,20 cents,1,2.084701786,win,NA
12_YK,31,slots visible: 3,10 cents,1,2.565003488,loss,NA
12_YK,32,slots visible: 0,40 cents,1,1.225955297,win,NA
12_YK,33,slots visible: 2,20 cents,0,1.659611972,loss,NA
12_YK,34,slots visible: 0,10 cents,1,1.922367766,loss,NA
12_YK,35,slots visible: 3,50 cents,1,1.794771264,win,NA
12_YK,36,slots visible: 3,40 cents,1,2.965556607,loss,NA
12_YK,37,slots visible: 5,10 cents,1,1.604022677,win,NA
12_YK,38,slots visible: 5,20 cents,0,1.000008504,win,NA
12_YK,39,slots visible: 3,50 cents,1,1.000080349,loss,NA
12_YK,40,slots visible: 4,30 cents,1,1.700524645,loss,NA
12_YK,41,slots visible: 0,20 cents,1,1.117217679,loss,NA
12_YK,42,slots visible: 1,20 cents,1,1.308892627,win,NA
12_YK,43,slots visible: 1,30 cents,1,2.634255658,loss,NA
12_YK,44,slots visible: 3,20 cents,1,2.22648695,win,NA
12_YK,45,slots visible: 2,30 cents,1,3.304844966,loss,NA
12_YK,46,slots visible: 5,30 cents,1,1.131346227,loss,NA
12_YK,47,slots visible: 1,30 cents,1,3.418627572,loss,NA
12_YK,48,slots visible: 0,10 cents,0,2.670208383,win,NA
12_YK,49,slots visible: 0,40 cents,1,2.88860089,loss,NA
12_YK,50,slots visible: 1,30 cents,1,1.261490442,loss,NA
12_YK,51,slots visible: 3,10 cents,1,2.827473075,loss,NA
12_YK,52,slots visible: 1,10 cents,1,2.669884054,win,NA
12_YK,53,slots visible: 4,20 cents,0,1.09038165,loss,NA
12_YK,54,slots visible: 0,30 cents,1,1.69505709,loss,NA
12_YK,55,slots visible: 1,30 cents,1,1.000020234,win,NA
12_YK,56,slots visible: 0,50 cents,1,2.644452668,win,NA
12_YK,57,slots visible: 1,30 cents,1,3.208663808,win,NA
12_YK,58,slots visible: 0,50 cents,1,3.344440088,loss,NA
12_YK,59,slots visible: 2,30 cents,1,1.701426373,loss,NA
12_YK,60,slots visible: 1,10 cents,1,3.413445052,loss,NA
12_YK,61,slots visible: 1,50 cents,1,3.816205133,win,NA
12_YK,62,slots visible: 0,40 cents,0,3.180834851,win,NA
12_YK,63,slots visible: 3,10 cents,1,2.114338892,win,NA
12_YK,64,slots visible: 5,30 cents,0,3.273369799,win,NA
12_YK,65,slots visible: 3,30 cents,1,2.474778138,loss,NA
12_YK,66,slots visible: 1,10 cents,1,1.000060995,win,NA
12_YK,67,slots visible: 0,20 cents,1,2.372877236,win,NA
12_YK,68,slots visible: 3,50 cents,0,2.755143885,loss,NA
12_YK,69,slots visible: 5,30 cents,1,1.349378628,loss,NA
12_YK,70,slots visible: 1,10 cents,1,2.494016188,win,NA
12_YK,71,slots visible: 3,20 cents,0,2.220405927,loss,NA
12_YK,72,slots visible: 4,10 cents,1,1.433659901,loss,NA
12_YK,73,slots visible: 2,20 cents,1,1.355349098,loss,NA
12_YK,74,slots visible: 2,10 cents,1,2.152662504,win,NA
12_YK,75,slots visible: 3,20 cents,1,1.49234645,win,NA
12_YK,76,slots visible: 1,40 cents,0,2.608438655,win,NA
12_YK,77,slots visible: 5,10 cents,1,2.679461145,loss,NA
12_YK,78,slots visible: 1,20 cents,1,2.942749765,loss,NA
12_YK,79,slots visible: 2,10 cents,0,2.116925314,loss,NA
12_YK,80,slots visible: 5,40 cents,1,1.989385995,win,NA
12_YK,81,slots visible: 3,40 cents,1,2.993341284,loss,NA
12_YK,82,slots visible: 3,40 cents,1,2.283009938,win,NA
12_YK,83,slots visible: 4,30 cents,1,1.640808805,loss,NA
12_YK,84,slots visible: 2,30 cents,1,3.120462436,win,NA
12_YK,85,slots visible: 2,10 cents,1,2.32245052,loss,NA
12_YK,86,slots visible: 2,30 cents,1,2.770719304,win,NA
12_YK,87,slots visible: 3,30 cents,0,2.737188196,loss,NA
12_YK,88,slots visible: 4,50 cents,1,2.2364001,win,NA
12_YK,89,slots visible: 4,50 cents,1,2.940849244,win,NA
12_YK,90,slots visible: 0,10 cents,1,1.95199109,loss,NA
12_YK,91,slots visible: 1,20 cents,1,2.819617333,win,NA
12_YK,92,slots visible: 0,30 cents,0,2.673420883,win,NA
12_YK,93,slots visible: 1,20 cents,1,3.010547145,loss,NA
12_YK,94,slots visible: 3,30 cents,1,1.024517634,win,NA
12_YK,95,slots visible: 3,30 cents,1,1.813681173,win,NA
12_YK,96,slots visible: 4,10 cents,1,1.000032257,win,NA
12_YK,97,slots visible: 4,20 cents,1,1.476599776,loss,NA
12_YK,98,slots visible: 5,20 cents,0,1.406240314,loss,NA
12_YK,99,slots visible: 4,40 cents,1,1.879126141,win,NA
12_YK,100,slots visible: 3,30 cents,1,1.226285784,loss,NA
12_YK,101,slots visible: 5,20 cents,1,2.635573794,loss,NA
12_YK,102,slots visible: 4,40 cents,0,2.43937554,loss,NA
12_YK,103,slots visible: 5,50 cents,1,1.183717157,loss,NA
12_YK,104,slots visible: 0,10 cents,1,1.48987674,loss,NA
12_YK,105,slots visible: 5,20 cents,1,2.679610406,win,NA
12_YK,106,slots visible: 5,40 cents,1,1.616989974,loss,NA
12_YK,107,slots visible: 2,50 cents,1,2.148886974,loss,NA
12_YK,108,slots visible: 0,40 cents,1,1.767814711,loss,NA
12_YK,109,slots visible: 0,20 cents,0,2.027421933,win,NA
12_YK,110,slots visible: 5,20 cents,1,2.080581693,loss,NA
12_YK,111,slots visible: 4,10 cents,1,1.649038435,loss,NA
12_YK,112,slots visible: 0,20 cents,1,3.255722897,loss,NA
12_YK,113,slots visible: 0,50 cents,0,2.216006665,loss,NA
12_YK,114,slots visible: 5,40 cents,1,2.629854049,win,NA
12_YK,115,slots visible: 0,40 cents,1,2.513083569,loss,NA
12_YK,116,slots visible: 0,10 cents,1,1.187232872,win,NA
12_YK,117,slots visible: 2,30 cents,1,2.869429993,loss,NA
12_YK,118,slots visible: 5,50 cents,1,2.545189212,loss,NA
12_YK,119,slots visible: 4,40 cents,0,2.868633833,win,NA
12_YK,120,slots visible: 4,10 cents,1,2.915219038,loss,NA
12_YK,121,slots visible: 5,10 cents,0,2.443948111,loss,NA
12_YK,122,slots visible: 3,40 cents,1,1.139206074,win,NA
12_YK,123,slots visible: 2,40 cents,1,1.288752849,loss,NA
12_YK,124,slots visible: 1,50 cents,1,3.071545053,win,NA
12_YK,125,slots visible: 2,50 cents,0,2.08355813,loss,NA
12_YK,126,slots visible: 4,30 cents,1,2.609880834,loss,NA
12_YK,127,slots visible: 3,20 cents,1,1.120057758,win,NA
12_YK,128,slots visible: 3,10 cents,1,2.396116614,win,NA
12_YK,129,slots visible: 3,50 cents,0,2.187586819,win,NA
12_YK,130,slots visible: 1,50 cents,1,2.585628294,loss,NA
12_YK,131,slots visible: 5,40 cents,1,1.894103633,loss,NA
12_YK,132,slots visible: 2,20 cents,0,1.985831571,win,NA
12_YK,133,slots visible: 5,30 cents,1,1.388745313,loss,NA
12_YK,134,slots visible: 1,40 cents,1,1.224683787,loss,NA
12_YK,135,slots visible: 0,50 cents,1,2.267268542,win,NA
12_YK,136,slots visible: 0,10 cents,1,1.179790019,win,NA
12_YK,137,slots visible: 5,10 cents,0,1.811069825,win,NA
12_YK,138,slots visible: 4,50 cents,1,3.026697031,loss,NA
12_YK,139,slots visible: 5,30 cents,0,1.549091424,win,NA
12_YK,140,slots visible: 1,40 cents,1,1.867588707,loss,NA
12_YK,141,slots visible: 5,50 cents,1,2.354150019,win,NA
12_YK,142,slots visible: 4,20 cents,0,3.361109311,win,NA
12_YK,143,slots visible: 3,40 cents,0,2.635125422,loss,NA
12_YK,144,slots visible: 2,10 cents,1,1.033795028,win,NA
12_YK,145,slots visible: 2,50 cents,1,1.139945931,win,NA
12_YK,146,slots visible: 2,20 cents,0,1.696068786,win,NA
12_YK,147,slots visible: 3,10 cents,1,2.702364758,loss,NA
12_YK,148,slots visible: 3,40 cents,1,1.426202092,win,NA
12_YK,149,slots visible: 4,50 cents,0,3.515209889,win,NA
12_YK,150,slots visible: 5,10 cents,0,2.871678303,win,NA
12_YK,151,slots visible: 3,10 cents,1,1.69715262,win,NA
12_YK,152,slots visible: 1,40 cents,1,3.310623653,win,NA
12_YK,153,slots visible: 2,30 cents,0,3.199762354,win,NA
12_YK,154,slots visible: 5,50 cents,0,1.19999871,loss,NA
12_YK,155,slots visible: 3,50 cents,1,2.641949822,loss,NA
12_YK,156,slots visible: 5,50 cents,1,3.376841616,win,NA
12_YK,157,slots visible: 0,50 cents,1,3.356408006,win,NA
12_YK,158,slots visible: 4,10 cents,1,2.408335843,win,NA
12_YK,159,slots visible: 4,20 cents,0,1.486812916,win,NA
12_YK,160,slots visible: 0,40 cents,1,3.096370594,win,NA
12_YK,161,slots visible: 1,40 cents,0,2.794989439,win,NA
12_YK,162,slots visible: 0,20 cents,1,1.308986759,loss,NA
12_YK,163,slots visible: 2,10 cents,1,1.005695406,loss,NA
12_YK,164,slots visible: 4,50 cents,1,3.253640857,loss,NA
12_YK,165,slots visible: 2,50 cents,0,1.766477221,win,NA
12_YK,166,slots visible: 2,40 cents,1,2.780552397,win,NA
12_YK,167,slots visible: 2,50 cents,1,2.009390587,win,NA
12_YK,168,slots visible: 2,40 cents,0,1.60062602,loss,NA
12_YK,169,slots visible: 4,20 cents,1,2.968172353,loss,NA
12_YK,170,slots visible: 3,30 cents,1,2.988845544,win,NA
12_YK,171,slots visible: 0,30 cents,1,1.759332891,win,NA
12_YK,172,slots visible: 0,50 cents,0,1.929081026,loss,NA
12_YK,173,slots visible: 2,40 cents,1,2.191554718,loss,NA
12_YK,174,slots visible: 2,50 cents,1,1.433949627,loss,NA
12_YK,175,slots visible: 2,40 cents,1,3.140498112,win,NA
12_YK,176,slots visible: 1,50 cents,0,1.359009676,win,NA
12_YK,177,slots visible: 3,20 cents,1,1.401903806,loss,NA
12_YK,178,slots visible: 4,50 cents,1,1.265190021,loss,NA
12_YK,179,slots visible: 0,30 cents,1,1.000034896,win,NA
12_YK,180,slots visible: 1,10 cents,1,1.828151644,loss,NA
13_LG,1,slots visible: 0,20 cents,1,2.345960857,win,NA
13_LG,2,slots visible: 1,20 cents,0,2.012084043,win,NA
13_LG,3,slots visible: 2,30 cents,1,1.594091933,win,NA
13_LG,4,slots visible: 1,50 cents,1,2.202928521,win,NA
13_LG,5,slots visible: 4,40 cents,1,1.715646413,win,NA
13_LG,6,slots visible: 2,30 cents,0,1.820105586,win,NA
13_LG,7,slots visible: 4,20 cents,1,1.025728443,win,NA
13_LG,8,slots visible: 1,50 cents,0,2.220259598,win,NA
13_LG,9,slots visible: 1,20 cents,1,1.21493808,loss,NA
13_LG,10,slots visible: 5,50 cents,1,1.000006745,loss,NA
13_LG,11,slots visible: 0,10 cents,1,1.765108353,win,NA
13_LG,12,slots visible: 4,50 cents,1,1.547669186,win,NA
13_LG,13,slots visible: 2,30 cents,0,1.997980421,win,NA
13_LG,14,slots visible: 4,40 cents,1,1.048410069,loss,NA
13_LG,15,slots visible: 1,20 cents,0,1.000007624,win,NA
13_LG,16,slots visible: 3,30 cents,1,1.189059496,loss,NA
13_LG,17,slots visible: 4,10 cents,1,1.0000434,loss,NA
13_LG,18,slots visible: 5,40 cents,1,1.000075364,win,NA
13_LG,19,slots visible: 4,10 cents,0,1.376863902,loss,NA
13_LG,20,slots visible: 2,20 cents,0,1.000547489,loss,NA
13_LG,21,slots visible: 0,40 cents,1,1.000032257,loss,NA
13_LG,22,slots visible: 5,40 cents,0,1.000039295,loss,NA
13_LG,23,slots visible: 4,40 cents,1,1.000022287,loss,NA
13_LG,24,slots visible: 1,30 cents,1,2.322203901,win,NA
13_LG,25,slots visible: 2,10 cents,0,1.220533489,win,NA
13_LG,26,slots visible: 3,10 cents,1,2.272806476,win,NA
13_LG,27,slots visible: 1,10 cents,1,1.000043694,win,NA
13_LG,28,slots visible: 0,50 cents,1,1.140240056,win,NA
13_LG,29,slots visible: 0,40 cents,1,1.154181513,win,NA
13_LG,30,slots visible: 2,50 cents,1,1.011547111,loss,NA
13_LG,31,slots visible: 1,10 cents,0,1.00002082,loss,NA
13_LG,32,slots visible: 5,30 cents,1,1.019076765,loss,NA
13_LG,33,slots visible: 1,50 cents,1,1.00006598,loss,NA
13_LG,34,slots visible: 5,10 cents,1,1.000063634,win,NA
13_LG,35,slots visible: 0,40 cents,1,1.006864574,win,NA
13_LG,36,slots visible: 3,40 cents,1,1.00001173,loss,NA
13_LG,37,slots visible: 0,30 cents,1,1.967946848,win,NA
13_LG,38,slots visible: 3,50 cents,1,1.118439338,win,NA
13_LG,39,slots visible: 0,20 cents,1,1.999814669,loss,NA
13_LG,40,slots visible: 2,50 cents,1,1.177365175,win,NA
13_LG,41,slots visible: 5,30 cents,1,1.23049737,loss,NA
13_LG,42,slots visible: 1,30 cents,0,1.121110214,loss,NA
13_LG,43,slots visible: 3,20 cents,0,1.233348885,win,NA
13_LG,44,slots visible: 4,40 cents,1,1.037775243,win,NA
13_LG,45,slots visible: 5,40 cents,1,1.000004399,loss,NA
13_LG,46,slots visible: 0,30 cents,1,1.000070672,win,NA
13_LG,47,slots visible: 5,10 cents,0,1.000014662,win,NA
13_LG,48,slots visible: 5,20 cents,1,2.879768935,loss,NA
13_LG,49,slots visible: 5,20 cents,0,1.000148675,win,NA
13_LG,50,slots visible: 1,40 cents,1,1.105799596,win,NA
13_LG,51,slots visible: 5,30 cents,1,1.00010117,loss,NA
13_LG,52,slots visible: 4,50 cents,1,1.141384299,loss,NA
13_LG,53,slots visible: 4,50 cents,1,1.280956929,loss,NA
13_LG,54,slots visible: 0,30 cents,1,1.298368942,loss,NA
13_LG,55,slots visible: 2,10 cents,0,1.134765171,win,NA
13_LG,56,slots visible: 4,10 cents,0,1.110280674,win,NA
13_LG,57,slots visible: 3,20 cents,1,1.422318061,win,NA
13_LG,58,slots visible: 1,40 cents,1,1.000025806,loss,NA
13_LG,59,slots visible: 3,50 cents,1,1.000024339,loss,NA
13_LG,60,slots visible: 4,30 cents,1,1.137429596,loss,NA
13_LG,61,slots visible: 2,10 cents,1,1.620399241,loss,NA
13_LG,62,slots visible: 1,20 cents,0,1.045358561,loss,NA
13_LG,63,slots visible: 2,40 cents,1,1.000026392,loss,NA
13_LG,64,slots visible: 2,10 cents,0,1.803672719,loss,NA
13_LG,65,slots visible: 4,50 cents,1,1.185921187,win,NA
13_LG,66,slots visible: 5,10 cents,1,1.000029911,loss,NA
13_LG,67,slots visible: 0,20 cents,1,1.205752178,loss,NA
13_LG,68,slots visible: 2,10 cents,0,1.004291055,win,NA
13_LG,69,slots visible: 0,10 cents,1,1.269254691,win,NA
13_LG,70,slots visible: 3,10 cents,1,1.000005278,loss,NA
13_LG,71,slots visible: 1,40 cents,1,1.112274154,loss,NA
13_LG,72,slots visible: 5,20 cents,1,1.169525855,win,NA
13_LG,73,slots visible: 3,10 cents,0,1.034056896,win,NA
13_LG,74,slots visible: 0,10 cents,1,1.237482174,loss,NA
13_LG,75,slots visible: 5,20 cents,1,1.292534831,loss,NA
13_LG,76,slots visible: 1,30 cents,1,1.988231196,win,NA
13_LG,77,slots visible: 2,40 cents,1,1.000001173,loss,NA
13_LG,78,slots visible: 3,10 cents,1,2.229888007,loss,NA
13_LG,79,slots visible: 3,20 cents,1,1.041315884,loss,NA
13_LG,80,slots visible: 2,20 cents,1,1.376872113,win,NA
13_LG,81,slots visible: 0,30 cents,1,1.176115072,loss,NA
13_LG,82,slots visible: 4,10 cents,1,1.835338787,win,NA
13_LG,83,slots visible: 1,10 cents,0,1.285598999,win,NA
13_LG,84,slots visible: 2,50 cents,1,1.197249244,win,NA
13_LG,85,slots visible: 1,30 cents,0,2.182274684,loss,NA
13_LG,86,slots visible: 4,10 cents,1,1.716124989,loss,NA
13_LG,87,slots visible: 2,40 cents,1,1.1006464,loss,NA
13_LG,88,slots visible: 2,20 cents,1,1.850796615,loss,NA
13_LG,89,slots visible: 1,10 cents,0,1.000341044,loss,NA
13_LG,90,slots visible: 0,10 cents,1,2.339593334,loss,NA
13_LG,91,slots visible: 2,40 cents,1,1.000034603,win,NA
13_LG,92,slots visible: 3,20 cents,0,1.143100955,win,NA
13_LG,93,slots visible: 0,50 cents,1,1.155530734,loss,NA
13_LG,94,slots visible: 5,40 cents,1,1.003169099,win,NA
13_LG,95,slots visible: 3,30 cents,1,2.197500555,win,NA
13_LG,96,slots visible: 2,20 cents,0,1.276587284,loss,NA
13_LG,97,slots visible: 1,50 cents,1,1.100349343,loss,NA
13_LG,98,slots visible: 2,20 cents,1,1.298646058,win,NA
13_LG,99,slots visible: 3,50 cents,1,1.000016128,loss,NA
13_LG,100,slots visible: 2,30 cents,1,1.00006598,loss,NA
13_LG,101,slots visible: 3,30 cents,0,1.481745934,loss,NA
13_LG,102,slots visible: 5,10 cents,1,1.472717798,loss,NA
13_LG,103,slots visible: 2,40 cents,1,1.114521291,win,NA
13_LG,104,slots visible: 0,20 cents,1,1.347680739,win,NA
13_LG,105,slots visible: 0,30 cents,1,1.032103884,win,NA
13_LG,106,slots visible: 0,50 cents,1,1.090772545,loss,NA
13_LG,107,slots visible: 3,40 cents,1,1.553225007,win,NA
13_LG,108,slots visible: 5,40 cents,1,1.092504451,loss,NA
13_LG,109,slots visible: 0,10 cents,1,1.136976532,loss,NA
13_LG,110,slots visible: 3,10 cents,0,1.30530536,loss,NA
