subject_num,trial_num,information,stake,decision,reaction_time,outcome,early_late
623_SS,1,slots visible: 3,50 cents,1,2.767450992,loss,NA
623_SS,2,slots visible: 3,50 cents,1,2.983702271,win,NA
623_SS,3,slots visible: 0,50 cents,1,3.865988369,loss,NA
623_SS,4,slots visible: 4,50 cents,1,2.07654276,win,NA
623_SS,5,slots visible: 1,50 cents,0,1.117258197,win,NA
623_SS,6,slots visible: 5,50 cents,1,1.993610171,win,NA
623_SS,7,slots visible: 2,50 cents,0,4.137887462,win,NA
623_SS,8,slots visible: 5,50 cents,0,1.591988169,loss,NA
623_SS,9,slots visible: 5,50 cents,1,0.722408124,win,NA
623_SS,10,slots visible: 5,50 cents,0,1.912790713,win,NA
623_SS,11,slots visible: 4,50 cents,1,1.587112956,loss,NA
623_SS,12,slots visible: 3,50 cents,1,2.157648426,loss,NA
623_SS,13,slots visible: 3,50 cents,1,0.824162702,win,NA
623_SS,14,slots visible: 1,50 cents,0,1.428866015,loss,NA
623_SS,15,slots visible: 4,50 cents,1,2.222758699,loss,NA
623_SS,16,slots visible: 4,50 cents,1,0.45100403,win,NA
623_SS,17,slots visible: 0,50 cents,1,2.337555977,loss,NA
623_SS,18,slots visible: 2,50 cents,1,1.271911409,loss,NA
623_SS,19,slots visible: 1,50 cents,1,1.026131438,win,NA
623_SS,20,slots visible: 0,50 cents,0,2.012784936,loss,NA
623_SS,21,slots visible: 3,50 cents,0,2.514938681,win,NA
623_SS,22,slots visible: 2,50 cents,1,1.733806007,loss,NA
623_SS,23,slots visible: 3,50 cents,1,0.64399035,win,NA
623_SS,24,slots visible: 0,50 cents,1,1.348099634,loss,NA
623_SS,25,slots visible: 2,50 cents,1,0.910724209,loss,NA
623_SS,26,slots visible: 5,50 cents,1,0.433130984,loss,NA
623_SS,27,slots visible: 0,50 cents,1,1.251466889,win,NA
623_SS,28,slots visible: 2,50 cents,0,1.153582571,win,NA
623_SS,29,slots visible: 0,50 cents,0,1.716416816,loss,NA
623_SS,30,slots visible: 5,50 cents,1,2.172485204,loss,NA
623_SS,31,slots visible: 4,50 cents,1,1.586769271,loss,NA
623_SS,32,slots visible: 4,50 cents,1,0.781420055,loss,NA
623_SS,33,slots visible: 4,50 cents,1,1.639698109,win,NA
623_SS,34,slots visible: 3,50 cents,1,1.727651654,win,NA
623_SS,35,slots visible: 1,50 cents,1,2.094586768,win,NA
623_SS,36,slots visible: 2,50 cents,0,2.074696776,loss,NA
623_SS,37,slots visible: 5,50 cents,0,2.501110082,win,NA
623_SS,38,slots visible: 2,50 cents,0,1.969695379,win,NA
623_SS,39,slots visible: 0,50 cents,0,2.1121044,loss,NA
623_SS,40,slots visible: 1,50 cents,1,0.91478068,win,NA
623_SS,41,slots visible: 2,50 cents,0,2.10073115,win,NA
623_SS,42,slots visible: 5,50 cents,1,1.697214486,loss,NA
623_SS,43,slots visible: 0,50 cents,0,3.613977509,loss,NA
623_SS,44,slots visible: 4,50 cents,1,1.81192379,loss,NA
623_SS,45,slots visible: 1,50 cents,1,1.410504128,win,NA
623_SS,46,slots visible: 0,50 cents,0,1.009082413,loss,NA
623_SS,47,slots visible: 0,50 cents,0,1.423680841,win,NA
623_SS,48,slots visible: 0,50 cents,0,2.259598599,loss,NA
623_SS,49,slots visible: 0,50 cents,0,3.040016926,win,NA
623_SS,50,slots visible: 3,50 cents,1,0.784433744,loss,NA
623_SS,51,slots visible: 1,50 cents,1,1.395854441,win,NA
623_SS,52,slots visible: 3,50 cents,1,0.899214599,loss,NA
623_SS,53,slots visible: 3,50 cents,1,1.03962251,loss,NA
623_SS,54,slots visible: 3,50 cents,0,2.047959492,loss,NA
623_SS,55,slots visible: 2,50 cents,1,1.416277261,loss,NA
623_SS,56,slots visible: 5,50 cents,1,0.78090013,win,NA
623_SS,57,slots visible: 3,50 cents,1,1.185087741,loss,NA
623_SS,58,slots visible: 4,50 cents,1,1.179358595,win,NA
623_SS,59,slots visible: 2,50 cents,0,1.599788511,win,NA
623_SS,60,slots visible: 2,50 cents,1,3.299348671,win,NA
623_SS,61,slots visible: 3,50 cents,0,1.770909241,win,NA
623_SS,62,slots visible: 2,50 cents,1,1.297182464,loss,NA
623_SS,63,slots visible: 2,50 cents,1,0.813710831,win,NA
623_SS,64,slots visible: 5,50 cents,1,1.763824126,loss,NA
623_SS,65,slots visible: 4,50 cents,1,1.594754651,win,NA
623_SS,66,slots visible: 1,50 cents,0,2.442977889,loss,NA
623_SS,67,slots visible: 3,50 cents,1,2.227366473,loss,NA
623_SS,68,slots visible: 5,50 cents,1,1.341517143,loss,NA
623_SS,69,slots visible: 5,50 cents,1,0.481981357,win,NA
623_SS,70,slots visible: 1,50 cents,1,2.114341867,win,NA
623_SS,71,slots visible: 1,50 cents,0,2.356670333,win,NA
623_SS,72,slots visible: 3,50 cents,1,2.231460186,loss,NA
623_SS,73,slots visible: 0,50 cents,1,0.961856915,loss,NA
623_SS,74,slots visible: 5,50 cents,1,1.159740735,win,NA
623_SS,75,slots visible: 2,50 cents,1,1.306282178,win,NA
623_SS,76,slots visible: 2,50 cents,0,1.286699508,loss,NA
623_SS,77,slots visible: 5,50 cents,1,2.983139825,win,NA
623_SS,78,slots visible: 5,50 cents,0,2.435417129,loss,NA
623_SS,79,slots visible: 1,50 cents,0,1.446166938,win,NA
623_SS,80,slots visible: 5,50 cents,1,2.220442936,win,NA
623_SS,81,slots visible: 3,50 cents,0,0.992987903,loss,NA
623_SS,82,slots visible: 0,50 cents,1,1.667056782,win,NA
623_SS,83,slots visible: 3,50 cents,0,1.063541115,loss,NA
623_SS,84,slots visible: 4,50 cents,1,0.851911685,loss,NA
623_SS,85,slots visible: 2,50 cents,1,1.084186508,win,NA
623_SS,86,slots visible: 1,50 cents,0,1.418457837,loss,NA
623_SS,87,slots visible: 1,50 cents,0,2.287320017,win,NA
623_SS,88,slots visible: 3,50 cents,0,1.629693438,win,NA
623_SS,89,slots visible: 4,50 cents,1,0.768093201,win,NA
623_SS,90,slots visible: 3,50 cents,0,1.13442628,win,NA
623_SS,91,slots visible: 5,50 cents,0,1.482507734,loss,NA
623_SS,92,slots visible: 3,50 cents,1,1.37882565,loss,NA
623_SS,93,slots visible: 1,50 cents,1,1.081101267,win,NA
623_SS,94,slots visible: 0,50 cents,0,1.34560851,win,NA
623_SS,95,slots visible: 5,50 cents,1,1.38224783,win,NA
623_SS,96,slots visible: 5,50 cents,0,2.578534046,win,NA
623_SS,97,slots visible: 0,50 cents,1,1.785060703,win,NA
623_SS,98,slots visible: 1,50 cents,0,2.667256775,loss,NA
623_SS,99,slots visible: 4,50 cents,1,1.149633428,win,NA
623_SS,100,slots visible: 5,50 cents,0,1.568305335,loss,NA
623_SS,101,slots visible: 1,50 cents,1,2.206402908,loss,NA
623_SS,102,slots visible: 0,50 cents,1,0.647048318,loss,NA
623_SS,103,slots visible: 4,50 cents,1,0.87724784,win,NA
623_SS,104,slots visible: 3,50 cents,0,1.255560016,win,NA
623_SS,105,slots visible: 0,50 cents,1,1.035901513,loss,NA
623_SS,106,slots visible: 5,50 cents,1,0.684375593,loss,NA
623_SS,107,slots visible: 4,50 cents,1,0.522663952,win,NA
623_SS,108,slots visible: 5,50 cents,1,0.706929431,win,NA
623_SS,109,slots visible: 2,50 cents,1,1.421486188,win,NA
623_SS,110,slots visible: 1,50 cents,0,2.209752949,loss,NA
623_SS,111,slots visible: 5,50 cents,1,0.730143951,win,NA
623_SS,112,slots visible: 0,50 cents,1,1.088687833,win,NA
623_SS,113,slots visible: 4,50 cents,1,0.926889684,loss,NA
623_SS,114,slots visible: 0,50 cents,1,0.412925166,win,NA
623_SS,115,slots visible: 0,50 cents,0,1.875520328,win,NA
623_SS,116,slots visible: 1,50 cents,1,0.917984685,loss,NA
623_SS,117,slots visible: 4,50 cents,1,1.080373724,loss,NA
623_SS,118,slots visible: 4,50 cents,1,0.682478878,win,NA
623_SS,119,slots visible: 2,50 cents,1,0.809088395,loss,NA
623_SS,120,slots visible: 4,50 cents,1,0.983112553,win,NA
623_SS,121,slots visible: 1,50 cents,0,1.593840017,win,NA
623_SS,122,slots visible: 2,50 cents,1,0.868748107,win,NA
623_SS,123,slots visible: 5,50 cents,1,1.102709387,loss,NA
623_SS,124,slots visible: 5,50 cents,1,0.601150345,loss,NA
623_SS,125,slots visible: 4,50 cents,1,0.631374617,loss,NA
623_SS,126,slots visible: 0,50 cents,1,0.46595576,loss,NA
623_SS,127,slots visible: 0,50 cents,1,0.486352481,win,NA
623_SS,128,slots visible: 1,50 cents,0,2.396451196,win,NA
623_SS,129,slots visible: 2,50 cents,1,0.909131297,win,NA
623_SS,130,slots visible: 3,50 cents,0,0.975349161,win,NA
623_SS,131,slots visible: 5,50 cents,1,0.923883034,loss,NA
623_SS,132,slots visible: 1,50 cents,0,2.804053656,loss,NA
623_SS,133,slots visible: 2,50 cents,1,1.012565295,loss,NA
623_SS,134,slots visible: 2,50 cents,1,0.898914609,win,NA
623_SS,135,slots visible: 3,50 cents,0,1.289288577,win,NA
623_SS,136,slots visible: 3,50 cents,0,3.289866564,win,NA
623_SS,137,slots visible: 4,50 cents,1,0.922040569,loss,NA
623_SS,138,slots visible: 3,50 cents,1,1.016329106,loss,NA
623_SS,139,slots visible: 2,50 cents,1,0.716865189,loss,NA
623_SS,140,slots visible: 0,50 cents,1,0.662886531,loss,NA
623_SS,141,slots visible: 3,50 cents,1,0.745442005,loss,NA
623_SS,142,slots visible: 5,50 cents,1,1.029905806,win,NA
623_SS,143,slots visible: 4,50 cents,1,0.720201741,loss,NA
623_SS,144,slots visible: 4,50 cents,1,0.592335666,loss,NA
623_SS,145,slots visible: 3,50 cents,1,0.89896798,win,NA
623_SS,146,slots visible: 2,50 cents,0,0.943286824,win,NA
623_SS,147,slots visible: 1,50 cents,1,1.027687108,loss,NA
623_SS,148,slots visible: 1,50 cents,1,1.59749914,loss,NA
623_SS,149,slots visible: 1,50 cents,1,1.03856096,win,NA
623_SS,150,slots visible: 2,50 cents,0,1.246613669,win,NA
623_SS,151,slots visible: 0,50 cents,0,1.687185475,win,NA
623_SS,152,slots visible: 1,50 cents,1,1.645563908,loss,NA
623_SS,153,slots visible: 0,50 cents,0,1.787974395,win,NA
623_SS,154,slots visible: 1,50 cents,0,2.622450263,loss,NA
623_SS,155,slots visible: 1,50 cents,1,0.882830949,loss,NA
623_SS,156,slots visible: 1,50 cents,1,1.059005187,win,NA
623_SS,157,slots visible: 2,50 cents,0,1.32759324,loss,NA
623_SS,158,slots visible: 1,50 cents,1,3.358119848,loss,NA
623_SS,159,slots visible: 3,50 cents,1,0.846199841,loss,NA
623_SS,160,slots visible: 5,50 cents,1,0.694613688,win,NA
623_SS,161,slots visible: 5,50 cents,1,1.621210419,loss,NA
623_SS,162,slots visible: 4,50 cents,1,0.74341245,loss,NA
623_SS,163,slots visible: 0,50 cents,1,0.713893142,loss,NA
623_SS,164,slots visible: 2,50 cents,1,1.476114679,loss,NA
623_SS,165,slots visible: 4,50 cents,1,0.828478109,win,NA
623_SS,166,slots visible: 5,50 cents,1,2.734715362,loss,NA
623_SS,167,slots visible: 2,50 cents,0,1.541536966,loss,NA
623_SS,168,slots visible: 0,50 cents,1,1.889639827,win,NA
623_SS,169,slots visible: 4,50 cents,0,1.962288867,loss,NA
623_SS,170,slots visible: 0,50 cents,1,1.522414106,win,NA
623_SS,171,slots visible: 3,50 cents,0,0.984800477,win,NA
623_SS,172,slots visible: 4,50 cents,0,2.491130044,win,NA
623_SS,173,slots visible: 4,50 cents,1,2.321679349,loss,NA
623_SS,174,slots visible: 2,50 cents,0,1.138066635,loss,NA
623_SS,175,slots visible: 2,50 cents,0,2.26461809,loss,NA
623_SS,176,slots visible: 0,50 cents,1,1.019244851,win,NA
623_SS,177,slots visible: 3,50 cents,1,1.465288919,win,NA
623_SS,178,slots visible: 4,50 cents,0,0.885624997,win,NA
623_SS,179,slots visible: 4,50 cents,0,2.571921937,win,NA
623_SS,180,slots visible: 1,50 cents,1,0.776343675,loss,NA
624_TN,1,slots visible: 2,50 cents,0,2.447831712,win,NA
624_TN,2,slots visible: 2,50 cents,1,1.389173399,win,NA
624_TN,3,slots visible: 5,50 cents,1,0.701835341,loss,NA
624_TN,4,slots visible: 1,50 cents,1,0.254116527,win,NA
624_TN,5,slots visible: 0,50 cents,1,1.898423415,win,NA
624_TN,6,slots visible: 4,50 cents,1,0.953114755,loss,NA
624_TN,7,slots visible: 4,50 cents,1,0.649074119,loss,NA
624_TN,8,slots visible: 0,50 cents,1,0.911472085,loss,NA
624_TN,9,slots visible: 5,50 cents,1,0.74372756,win,NA
624_TN,10,slots visible: 4,50 cents,1,0.810394011,win,NA
624_TN,11,slots visible: 2,50 cents,1,2.592665849,loss,NA
624_TN,12,slots visible: 2,50 cents,1,1.843112456,win,NA
624_TN,13,slots visible: 2,50 cents,1,1.075753719,loss,NA
624_TN,14,slots visible: 4,50 cents,1,1.068031199,loss,NA
624_TN,15,slots visible: 4,50 cents,1,0.366324884,win,NA
624_TN,16,slots visible: 4,50 cents,1,0.268580968,loss,NA
624_TN,17,slots visible: 0,50 cents,1,1.855065281,win,NA
624_TN,18,slots visible: 1,50 cents,0,1.365266281,win,NA
624_TN,19,slots visible: 4,50 cents,1,0.507879698,win,NA
624_TN,20,slots visible: 5,50 cents,1,0.814116128,loss,NA
624_TN,21,slots visible: 3,50 cents,1,0.436621375,win,NA
624_TN,22,slots visible: 4,50 cents,1,0.902798875,win,NA
624_TN,23,slots visible: 1,50 cents,0,2.242907949,loss,NA
624_TN,24,slots visible: 1,50 cents,1,0.947452844,loss,NA
624_TN,25,slots visible: 3,50 cents,1,0.493617887,win,NA
624_TN,26,slots visible: 0,50 cents,1,1.418211953,win,NA
624_TN,27,slots visible: 2,50 cents,1,1.528403393,win,NA
624_TN,28,slots visible: 4,50 cents,1,0.815042772,win,NA
624_TN,29,slots visible: 1,50 cents,0,2.197152858,loss,NA
624_TN,30,slots visible: 3,50 cents,1,0.535703352,loss,NA
624_TN,31,slots visible: 2,50 cents,1,0.901976918,win,NA
624_TN,32,slots visible: 2,50 cents,1,1.154490586,loss,NA
624_TN,33,slots visible: 3,50 cents,1,0.756743973,win,NA
624_TN,34,slots visible: 5,50 cents,1,0.807139615,loss,NA
624_TN,35,slots visible: 3,50 cents,1,0.583200299,win,NA
624_TN,36,slots visible: 5,50 cents,1,0.947715295,loss,NA
624_TN,37,slots visible: 4,50 cents,1,0.984458775,win,NA
624_TN,38,slots visible: 0,50 cents,1,2.068589531,win,NA
624_TN,39,slots visible: 2,50 cents,1,1.423343096,win,NA
624_TN,40,slots visible: 1,50 cents,1,2.083045761,win,NA
624_TN,41,slots visible: 4,50 cents,1,1.011823506,win,NA
624_TN,42,slots visible: 2,50 cents,1,1.858065437,win,NA
624_TN,43,slots visible: 3,50 cents,1,1.214414238,loss,NA
624_TN,44,slots visible: 1,50 cents,1,1.636790223,win,NA
624_TN,45,slots visible: 1,50 cents,1,3.143460006,loss,NA
624_TN,46,slots visible: 1,50 cents,1,0.707598421,loss,NA
624_TN,47,slots visible: 5,50 cents,1,0.590040749,loss,NA
624_TN,48,slots visible: 0,50 cents,1,0.80039183,win,NA
624_TN,49,slots visible: 1,50 cents,0,2.961003544,win,NA
624_TN,50,slots visible: 2,50 cents,1,0.721202197,win,NA
624_TN,51,slots visible: 2,50 cents,1,1.115499115,loss,NA
624_TN,52,slots visible: 5,50 cents,1,0.651959031,loss,NA
624_TN,53,slots visible: 3,50 cents,1,0.594251113,loss,NA
624_TN,54,slots visible: 5,50 cents,1,0.506694708,loss,NA
624_TN,55,slots visible: 2,50 cents,1,1.238787316,loss,NA
624_TN,56,slots visible: 0,50 cents,1,1.257301132,loss,NA
624_TN,57,slots visible: 2,50 cents,1,1.287473066,win,NA
624_TN,58,slots visible: 0,50 cents,1,0.894110416,loss,NA
624_TN,59,slots visible: 5,50 cents,1,1.796467082,loss,NA
624_TN,60,slots visible: 0,50 cents,1,1.355885479,win,NA
624_TN,61,slots visible: 5,50 cents,1,0.813744005,loss,NA
624_TN,62,slots visible: 3,50 cents,1,0.292264049,win,NA
624_TN,63,slots visible: 0,50 cents,1,0.82459952,loss,NA
624_TN,64,slots visible: 5,50 cents,1,1.130528926,win,NA
624_TN,65,slots visible: 5,50 cents,1,0.273192487,win,NA
624_TN,66,slots visible: 1,50 cents,1,1.465117138,win,NA
624_TN,67,slots visible: 3,50 cents,1,0.934111225,loss,NA
624_TN,68,slots visible: 4,50 cents,1,0.634147822,loss,NA
624_TN,69,slots visible: 4,50 cents,1,0.618534753,loss,NA
624_TN,70,slots visible: 0,50 cents,1,1.166710262,loss,NA
624_TN,71,slots visible: 0,50 cents,1,0.861355023,win,NA
624_TN,72,slots visible: 3,50 cents,1,0.721363773,win,NA
624_TN,73,slots visible: 0,50 cents,1,1.399919534,win,NA
624_TN,74,slots visible: 5,50 cents,1,0.592768777,win,NA
624_TN,75,slots visible: 1,50 cents,1,0.994748921,win,NA
624_TN,76,slots visible: 2,50 cents,1,0.837193372,win,NA
624_TN,77,slots visible: 3,50 cents,1,1.085638604,loss,NA
624_TN,78,slots visible: 0,50 cents,1,0.987702322,win,NA
624_TN,79,slots visible: 5,50 cents,1,0.846108213,win,NA
624_TN,80,slots visible: 3,50 cents,1,1.196437934,loss,NA
624_TN,81,slots visible: 4,50 cents,1,0.742943138,loss,NA
624_TN,82,slots visible: 2,50 cents,1,1.385044848,win,NA
624_TN,83,slots visible: 4,50 cents,1,0.987715225,win,NA
624_TN,84,slots visible: 1,50 cents,1,2.733885781,loss,NA
624_TN,85,slots visible: 0,50 cents,1,1.034452383,loss,NA
624_TN,86,slots visible: 4,50 cents,1,1.092987242,loss,NA
624_TN,87,slots visible: 1,50 cents,1,0.813021457,win,NA
624_TN,88,slots visible: 3,50 cents,1,1.043771605,loss,NA
624_TN,89,slots visible: 3,50 cents,1,0.915907953,loss,NA
624_TN,90,slots visible: 4,50 cents,1,0.934169287,loss,NA
624_TN,91,slots visible: 3,50 cents,1,0.820418479,loss,NA
624_TN,92,slots visible: 5,50 cents,1,0.912933602,win,NA
624_TN,93,slots visible: 0,50 cents,1,0.723419105,loss,NA
624_TN,94,slots visible: 0,50 cents,1,0.723675105,win,NA
624_TN,95,slots visible: 3,50 cents,1,1.316075276,win,NA
624_TN,96,slots visible: 1,50 cents,1,1.484626803,loss,NA
624_TN,97,slots visible: 4,50 cents,1,1.476791384,loss,NA
624_TN,98,slots visible: 1,50 cents,1,1.565182942,loss,NA
624_TN,99,slots visible: 5,50 cents,1,0.747338831,loss,NA
624_TN,100,slots visible: 3,50 cents,1,0.893977284,win,NA
624_TN,101,slots visible: 2,50 cents,1,1.146078361,loss,NA
624_TN,102,slots visible: 2,50 cents,1,0.98855067,loss,NA
624_TN,103,slots visible: 4,50 cents,1,0.857200374,win,NA
624_TN,104,slots visible: 3,50 cents,1,1.021234219,win,NA
624_TN,105,slots visible: 3,50 cents,1,0.817746461,loss,NA
624_TN,106,slots visible: 1,50 cents,1,1.272072597,loss,NA
624_TN,107,slots visible: 5,50 cents,1,0.978663146,win,NA
624_TN,108,slots visible: 2,50 cents,1,1.19882111,loss,NA
624_TN,109,slots visible: 5,50 cents,1,0.943186763,win,NA
624_TN,110,slots visible: 4,50 cents,1,0.563624069,loss,NA
624_TN,111,slots visible: 2,50 cents,1,0.69184313,win,NA
624_TN,112,slots visible: 4,50 cents,1,0.930239848,win,NA
624_TN,113,slots visible: 0,50 cents,1,0.880721586,loss,NA
624_TN,114,slots visible: 3,50 cents,1,0.897220831,win,NA
624_TN,115,slots visible: 0,50 cents,1,1.11731956,win,NA
624_TN,116,slots visible: 4,50 cents,1,0.599737959,win,NA
624_TN,117,slots visible: 1,50 cents,1,0.83237717,loss,NA
624_TN,118,slots visible: 4,50 cents,1,0.546361809,win,NA
624_TN,119,slots visible: 2,50 cents,1,0.876873961,loss,NA
624_TN,120,slots visible: 1,50 cents,1,1.046991985,loss,NA
624_TN,121,slots visible: 1,50 cents,1,0.588618527,win,NA
624_TN,122,slots visible: 2,50 cents,1,0.942632243,loss,NA
624_TN,123,slots visible: 5,50 cents,1,0.515313669,loss,NA
624_TN,124,slots visible: 0,50 cents,1,0.539312571,win,NA
624_TN,125,slots visible: 2,50 cents,1,0.671591857,win,NA
624_TN,126,slots visible: 2,50 cents,1,0.674178542,loss,NA
624_TN,127,slots visible: 4,50 cents,1,0.980589744,loss,NA
624_TN,128,slots visible: 5,50 cents,1,0.688700165,win,NA
624_TN,129,slots visible: 3,50 cents,1,0.52705624,win,NA
624_TN,130,slots visible: 0,50 cents,1,0.775373326,loss,NA
624_TN,131,slots visible: 3,50 cents,1,0.629798461,win,NA
624_TN,132,slots visible: 3,50 cents,1,1.360156544,win,NA
624_TN,133,slots visible: 3,50 cents,1,0.960484506,win,NA
624_TN,134,slots visible: 5,50 cents,1,1.040790216,win,NA
624_TN,135,slots visible: 1,50 cents,1,3.025152808,loss,NA
624_TN,136,slots visible: 5,50 cents,1,0.469629249,win,NA
624_TN,137,slots visible: 1,50 cents,1,0.736170134,win,NA
624_TN,138,slots visible: 5,50 cents,1,0.812518548,win,NA
624_TN,139,slots visible: 0,50 cents,1,0.940774557,loss,NA
624_TN,140,slots visible: 0,50 cents,1,0.865151917,loss,NA
624_TN,141,slots visible: 4,50 cents,1,0.587484854,win,NA
624_TN,142,slots visible: 2,50 cents,1,0.87774313,loss,NA
624_TN,143,slots visible: 0,50 cents,1,0.97416042,win,NA
624_TN,144,slots visible: 1,50 cents,1,1.700657096,win,NA
624_TN,145,slots visible: 0,50 cents,0,1.984838817,loss,NA
624_TN,146,slots visible: 5,50 cents,1,0.565331029,loss,NA
624_TN,147,slots visible: 0,50 cents,1,1.308006144,loss,NA
624_TN,148,slots visible: 3,50 cents,1,0.622116994,win,NA
624_TN,149,slots visible: 2,50 cents,1,0.828309028,win,NA
624_TN,150,slots visible: 4,50 cents,1,0.936824005,loss,NA
624_TN,151,slots visible: 4,50 cents,1,0.8611087,win,NA
624_TN,152,slots visible: 3,50 cents,1,0.801429905,loss,NA
624_TN,153,slots visible: 3,50 cents,1,0.610090272,loss,NA
624_TN,154,slots visible: 3,50 cents,1,1.040190243,loss,NA
624_TN,155,slots visible: 1,50 cents,1,0.640506475,loss,NA
624_TN,156,slots visible: 4,50 cents,1,0.816892248,loss,NA
624_TN,157,slots visible: 5,50 cents,1,0.621262194,win,NA
624_TN,158,slots visible: 2,50 cents,1,0.83380555,win,NA
624_TN,159,slots visible: 5,50 cents,1,0.691999428,win,NA
624_TN,160,slots visible: 5,50 cents,1,0.882293655,loss,NA
624_TN,161,slots visible: 5,50 cents,1,0.578944189,loss,NA
624_TN,162,slots visible: 2,50 cents,1,0.575193921,loss,NA
624_TN,163,slots visible: 1,50 cents,1,0.725148644,win,NA
624_TN,164,slots visible: 0,50 cents,1,0.88586094,loss,NA
624_TN,165,slots visible: 5,50 cents,1,0.822068844,loss,NA
624_TN,166,slots visible: 1,50 cents,1,0.722719137,win,NA
624_TN,167,slots visible: 4,50 cents,1,0.898797005,loss,NA
624_TN,168,slots visible: 5,50 cents,1,0.751267097,win,NA
624_TN,169,slots visible: 4,50 cents,1,0.593618298,win,NA
624_TN,170,slots visible: 1,50 cents,1,0.698136683,win,NA
624_TN,171,slots visible: 0,50 cents,1,1.326171002,win,NA
624_TN,172,slots visible: 1,50 cents,1,1.670825909,win,NA
624_TN,173,slots visible: 3,50 cents,1,0.737277415,loss,NA
624_TN,174,slots visible: 1,50 cents,1,0.903647223,loss,NA
624_TN,175,slots visible: 2,50 cents,1,0.739641236,loss,NA
624_TN,176,slots visible: 1,50 cents,1,1.424198189,loss,NA
624_TN,177,slots visible: 2,50 cents,1,0.868369365,loss,NA
624_TN,178,slots visible: 3,50 cents,1,1.198875653,loss,NA
624_TN,179,slots visible: 0,50 cents,1,1.119052325,win,NA
624_TN,180,slots visible: 0,50 cents,1,0.92761123,loss,NA
625_ET,1,slots visible: 0,50 cents,1,2.322521609,loss,NA
625_ET,2,slots visible: 1,50 cents,1,0.653025257,loss,NA
625_ET,3,slots visible: 1,50 cents,1,0.905070618,loss,NA
625_ET,4,slots visible: 1,50 cents,1,1.141703781,win,NA
625_ET,5,slots visible: 3,50 cents,1,0.651926481,loss,NA
625_ET,6,slots visible: 2,50 cents,1,0.562344655,win,NA
625_ET,7,slots visible: 3,50 cents,0,0.322717201,win,NA
625_ET,8,slots visible: 5,50 cents,0,0.291345323,loss,NA
625_ET,9,slots visible: 0,50 cents,1,0.353425474,win,NA
625_ET,10,slots visible: 5,50 cents,1,0.755695927,loss,NA
625_ET,11,slots visible: 4,50 cents,1,0.293925263,loss,NA
625_ET,12,slots visible: 4,50 cents,1,0.378280935,loss,NA
625_ET,13,slots visible: 3,50 cents,1,0.00100318,loss,NA
625_ET,14,slots visible: 3,50 cents,1,0.001012857,win,NA
625_ET,15,slots visible: 3,50 cents,1,1.195648234,win,NA
625_ET,16,slots visible: 2,50 cents,0,0.619509782,loss,NA
625_ET,17,slots visible: 2,50 cents,1,0.928120884,win,NA
625_ET,18,slots visible: 4,50 cents,1,0.606320943,loss,NA
625_ET,19,slots visible: 2,50 cents,1,0.422921121,win,NA
625_ET,20,slots visible: 0,50 cents,1,0.915169863,loss,NA
625_ET,21,slots visible: 2,50 cents,1,0.421627339,win,NA
625_ET,22,slots visible: 0,50 cents,0,0.519849532,loss,NA
625_ET,23,slots visible: 3,50 cents,1,0.634329045,loss,NA
625_ET,24,slots visible: 1,50 cents,1,0.426540604,win,NA
625_ET,25,slots visible: 2,50 cents,0,1.127055185,win,NA
625_ET,26,slots visible: 2,50 cents,1,0.631277865,loss,NA
625_ET,27,slots visible: 1,50 cents,0,0.907700117,loss,NA
625_ET,28,slots visible: 0,50 cents,1,0.695999245,win,NA
625_ET,29,slots visible: 1,50 cents,1,0.662573208,win,NA
625_ET,30,slots visible: 3,50 cents,1,0.466703283,loss,NA
625_ET,31,slots visible: 2,50 cents,1,0.391052785,loss,NA
625_ET,32,slots visible: 5,50 cents,1,0.337391017,win,NA
625_ET,33,slots visible: 0,50 cents,1,0.733962904,loss,NA
625_ET,34,slots visible: 1,50 cents,1,0.388184587,loss,NA
625_ET,35,slots visible: 4,50 cents,1,0.472505657,win,NA
625_ET,36,slots visible: 4,50 cents,1,0.488759752,loss,NA
625_ET,37,slots visible: 0,50 cents,1,0.39918731,win,NA
625_ET,38,slots visible: 3,50 cents,0,0.511392734,win,NA
625_ET,39,slots visible: 4,50 cents,1,0.588078669,loss,NA
625_ET,40,slots visible: 1,50 cents,1,0.69616434,loss,NA
625_ET,41,slots visible: 0,50 cents,1,0.668542436,win,NA
625_ET,42,slots visible: 5,50 cents,1,1.02271421,loss,NA
625_ET,43,slots visible: 0,50 cents,1,0.339017335,loss,NA
625_ET,44,slots visible: 4,50 cents,1,0.399614856,win,NA
625_ET,45,slots visible: 3,50 cents,1,0.704227314,win,NA
625_ET,46,slots visible: 3,50 cents,1,0.628145164,loss,NA
625_ET,47,slots visible: 2,50 cents,0,0.824587497,loss,NA
625_ET,48,slots visible: 4,50 cents,1,0.389056688,win,NA
625_ET,49,slots visible: 1,50 cents,1,2.319323515,loss,NA
625_ET,50,slots visible: 1,50 cents,1,0.537561332,win,NA
625_ET,51,slots visible: 3,50 cents,0,0.686117585,win,NA
625_ET,52,slots visible: 0,50 cents,1,0.448507927,loss,NA
625_ET,53,slots visible: 2,50 cents,1,0.488899042,win,NA
625_ET,54,slots visible: 5,50 cents,1,0.697127639,win,NA
625_ET,55,slots visible: 1,50 cents,0,0.0010674,loss,NA
625_ET,56,slots visible: 3,50 cents,1,0.567896014,loss,NA
625_ET,57,slots visible: 4,50 cents,1,0.264353889,loss,NA
625_ET,58,slots visible: 0,50 cents,1,0.001001127,win,NA
625_ET,59,slots visible: 0,50 cents,1,0.464673757,loss,NA
625_ET,60,slots visible: 3,50 cents,0,2.18865178,loss,NA
625_ET,61,slots visible: 1,50 cents,1,0.791862015,win,NA
625_ET,62,slots visible: 1,50 cents,1,0.466105949,loss,NA
625_ET,63,slots visible: 3,50 cents,1,0.364690061,win,NA
625_ET,64,slots visible: 0,50 cents,1,0.612881346,win,NA
625_ET,65,slots visible: 0,50 cents,0,0.627328486,loss,NA
625_ET,66,slots visible: 3,50 cents,0,0.43957901,win,NA
625_ET,67,slots visible: 0,50 cents,1,0.794055756,win,NA
625_ET,68,slots visible: 5,50 cents,1,0.388206581,win,NA
625_ET,69,slots visible: 3,50 cents,1,0.830699241,win,NA
625_ET,70,slots visible: 5,50 cents,0,0.608936952,win,NA
625_ET,71,slots visible: 3,50 cents,1,0.687650066,loss,NA
625_ET,72,slots visible: 5,50 cents,1,0.365742506,loss,NA
625_ET,73,slots visible: 1,50 cents,1,0.678121177,win,NA
625_ET,74,slots visible: 2,50 cents,1,0.63842182,loss,NA
625_ET,75,slots visible: 4,50 cents,1,0.494907858,win,NA
625_ET,76,slots visible: 2,50 cents,1,0.554976957,win,NA
625_ET,77,slots visible: 1,50 cents,0,1.147406453,win,NA
625_ET,78,slots visible: 4,50 cents,0,0.967970967,win,NA
625_ET,79,slots visible: 5,50 cents,1,0.590460671,win,NA
625_ET,80,slots visible: 2,50 cents,1,0.656614536,win,NA
625_ET,81,slots visible: 4,50 cents,1,0.524879214,loss,NA
625_ET,82,slots visible: 4,50 cents,1,0.453421779,win,NA
625_ET,83,slots visible: 5,50 cents,1,0.515686379,win,NA
625_ET,84,slots visible: 5,50 cents,0,0.572019872,win,NA
625_ET,85,slots visible: 3,50 cents,1,0.658570165,loss,NA
625_ET,86,slots visible: 2,50 cents,1,0.510706255,win,NA
625_ET,87,slots visible: 1,50 cents,0,1.32344708,loss,NA
625_ET,88,slots visible: 3,50 cents,1,1.043621172,win,NA
625_ET,89,slots visible: 3,50 cents,1,0.611788728,win,NA
625_ET,90,slots visible: 0,50 cents,0,0.73822048,win,NA
625_ET,91,slots visible: 2,50 cents,1,0.622602309,loss,NA
625_ET,92,slots visible: 4,50 cents,1,0.498831432,loss,NA
625_ET,93,slots visible: 0,50 cents,0,0.879248926,win,NA
625_ET,94,slots visible: 5,50 cents,1,0.553421017,win,NA
625_ET,95,slots visible: 0,50 cents,1,0.681820421,loss,NA
625_ET,96,slots visible: 4,50 cents,1,0.52433701,win,NA
625_ET,97,slots visible: 5,50 cents,1,0.484558478,loss,NA
625_ET,98,slots visible: 5,50 cents,1,0.436964174,win,NA
625_ET,99,slots visible: 5,50 cents,1,0.493311156,win,NA
625_ET,100,slots visible: 3,50 cents,0,0.563675093,win,NA
625_ET,101,slots visible: 4,50 cents,1,0.788168342,win,NA
625_ET,102,slots visible: 3,50 cents,0,2.71221903,loss,NA
625_ET,103,slots visible: 4,50 cents,1,0.546710473,win,NA
625_ET,104,slots visible: 0,50 cents,1,1.453074874,win,NA
625_ET,105,slots visible: 1,50 cents,1,0.979456952,win,NA
625_ET,106,slots visible: 1,50 cents,0,1.296024581,loss,NA
625_ET,107,slots visible: 5,50 cents,1,0.486482143,loss,NA
625_ET,108,slots visible: 1,50 cents,1,1.516552029,loss,NA
625_ET,109,slots visible: 3,50 cents,1,0.412953836,loss,NA
625_ET,110,slots visible: 3,50 cents,1,0.435275688,loss,NA
625_ET,111,slots visible: 4,50 cents,1,0.459642902,win,NA
625_ET,112,slots visible: 0,50 cents,1,0.511957811,loss,NA
625_ET,113,slots visible: 4,50 cents,1,0.338373963,loss,NA
625_ET,114,slots visible: 2,50 cents,1,0.328718686,loss,NA
625_ET,115,slots visible: 2,50 cents,1,0.478922665,loss,NA
625_ET,116,slots visible: 5,50 cents,1,0.457359135,loss,NA
625_ET,117,slots visible: 2,50 cents,1,0.855684021,loss,NA
625_ET,118,slots visible: 1,50 cents,0,0.582052845,loss,NA
625_ET,119,slots visible: 2,50 cents,0,0.546371486,loss,NA
625_ET,120,slots visible: 0,50 cents,1,0.855365268,win,NA
625_ET,121,slots visible: 4,50 cents,1,0.611443289,loss,NA
625_ET,122,slots visible: 2,50 cents,1,0.561940275,loss,NA
625_ET,123,slots visible: 5,50 cents,1,0.290267953,loss,NA
625_ET,124,slots visible: 2,50 cents,1,1.018433174,loss,NA
625_ET,125,slots visible: 0,50 cents,1,0.462790265,win,NA
625_ET,126,slots visible: 4,50 cents,1,0.498942864,win,NA
625_ET,127,slots visible: 2,50 cents,0,0.831542017,loss,NA
625_ET,128,slots visible: 4,50 cents,1,0.747804206,win,NA
625_ET,129,slots visible: 5,50 cents,1,0.526465358,loss,NA
625_ET,130,slots visible: 5,50 cents,1,0.454523781,loss,NA
625_ET,131,slots visible: 5,50 cents,1,0.388966077,win,NA
625_ET,132,slots visible: 1,50 cents,1,0.847252736,win,NA
625_ET,133,slots visible: 5,50 cents,1,0.461723452,loss,NA
625_ET,134,slots visible: 1,50 cents,1,0.481817254,win,NA
625_ET,135,slots visible: 4,50 cents,1,0.690699487,loss,NA
625_ET,136,slots visible: 5,50 cents,1,0.538648965,loss,NA
625_ET,137,slots visible: 1,50 cents,0,1.256922264,win,NA
625_ET,138,slots visible: 4,50 cents,1,0.95127261,loss,NA
625_ET,139,slots visible: 0,50 cents,1,1.361766441,win,NA
625_ET,140,slots visible: 5,50 cents,1,1.186141631,win,NA
625_ET,141,slots visible: 0,50 cents,1,1.334522526,loss,NA
625_ET,142,slots visible: 5,50 cents,1,0.756797929,win,NA
625_ET,143,slots visible: 2,50 cents,0,0.631289595,win,NA
625_ET,144,slots visible: 2,50 cents,1,0.795325786,win,NA
625_ET,145,slots visible: 2,50 cents,1,0.741969869,win,NA
625_ET,146,slots visible: 4,50 cents,1,0.594673675,loss,NA
625_ET,147,slots visible: 2,50 cents,1,0.532816387,win,NA
625_ET,148,slots visible: 1,50 cents,0,0.930952426,win,NA
625_ET,149,slots visible: 3,50 cents,1,0.635455387,win,NA
625_ET,150,slots visible: 1,50 cents,1,1.083588845,win,NA
625_ET,151,slots visible: 0,50 cents,1,1.091973505,loss,NA
625_ET,152,slots visible: 1,50 cents,1,1.330252047,loss,NA
625_ET,153,slots visible: 0,50 cents,1,1.04084036,win,NA
625_ET,154,slots visible: 5,50 cents,1,0.705153371,win,NA
625_ET,155,slots visible: 4,50 cents,1,0.773651117,loss,NA
625_ET,156,slots visible: 4,50 cents,0,0.420019788,win,NA
625_ET,157,slots visible: 3,50 cents,1,0.752309865,win,NA
625_ET,158,slots visible: 5,50 cents,1,0.968819901,loss,NA
625_ET,159,slots visible: 0,50 cents,1,0.702847612,loss,NA
625_ET,160,slots visible: 0,50 cents,1,0.53137745,win,NA
625_ET,161,slots visible: 4,50 cents,1,0.71568808,win,NA
625_ET,162,slots visible: 3,50 cents,1,0.790144205,loss,NA
625_ET,163,slots visible: 2,50 cents,0,0.84240721,loss,NA
625_ET,164,slots visible: 5,50 cents,1,0.450904006,loss,NA
625_ET,165,slots visible: 0,50 cents,1,1.137246214,loss,NA
625_ET,166,slots visible: 4,50 cents,1,0.509584899,win,NA
625_ET,167,slots visible: 2,50 cents,0,0.831797431,loss,NA
625_ET,168,slots visible: 3,50 cents,1,1.154302325,win,NA
625_ET,169,slots visible: 0,50 cents,0,1.71644523,loss,NA
625_ET,170,slots visible: 5,50 cents,1,0.471053817,loss,NA
625_ET,171,slots visible: 3,50 cents,1,0.76934457,loss,NA
625_ET,172,slots visible: 1,50 cents,1,1.722053771,win,NA
625_ET,173,slots visible: 1,50 cents,0,1.223973918,loss,NA
625_ET,174,slots visible: 1,50 cents,1,1.258401668,loss,NA
625_ET,175,slots visible: 3,50 cents,1,1.336864355,loss,NA
625_ET,176,slots visible: 5,50 cents,1,0.685074818,win,NA
625_ET,177,slots visible: 1,50 cents,0,1.413496039,win,NA
625_ET,178,slots visible: 2,50 cents,1,1.620069287,win,NA
625_ET,179,slots visible: 4,50 cents,1,0.682258231,loss,NA
625_ET,180,slots visible: 2,50 cents,1,0.578769124,win,NA
626_SL,1,slots visible: 5,50 cents,1,0.743516719,win,NA
626_SL,2,slots visible: 0,50 cents,1,1.88359858,win,NA
626_SL,3,slots visible: 2,50 cents,1,2.266045307,loss,NA
626_SL,4,slots visible: 0,50 cents,1,1.1163372,loss,NA
626_SL,5,slots visible: 1,50 cents,1,1.500700848,win,NA
626_SL,6,slots visible: 3,50 cents,1,0.779054976,loss,NA
626_SL,7,slots visible: 3,50 cents,1,1.391638682,win,NA
626_SL,8,slots visible: 5,50 cents,1,0.353846276,win,NA
626_SL,9,slots visible: 3,50 cents,0,0.356216548,win,NA
626_SL,10,slots visible: 1,50 cents,1,0.668486427,win,NA
626_SL,11,slots visible: 2,50 cents,1,1.237047513,loss,NA
626_SL,12,slots visible: 2,50 cents,1,0.557253686,loss,NA
626_SL,13,slots visible: 4,50 cents,1,0.903588868,loss,NA
626_SL,14,slots visible: 1,50 cents,1,1.130050355,win,NA
626_SL,15,slots visible: 2,50 cents,1,0.496241228,win,NA
626_SL,16,slots visible: 4,50 cents,0,0.364869818,loss,NA
626_SL,17,slots visible: 4,50 cents,1,0.501135432,loss,NA
626_SL,18,slots visible: 4,50 cents,1,0.001005233,win,NA
626_SL,19,slots visible: 3,50 cents,1,0.465803617,loss,NA
626_SL,20,slots visible: 0,50 cents,1,0.710134668,loss,NA
626_SL,21,slots visible: 3,50 cents,1,0.640522604,win,NA
626_SL,22,slots visible: 1,50 cents,1,0.608786226,win,NA
626_SL,23,slots visible: 2,50 cents,1,2.697254319,win,NA
626_SL,24,slots visible: 0,50 cents,0,0.365558643,loss,NA
626_SL,25,slots visible: 4,50 cents,0,0.294525529,loss,NA
626_SL,26,slots visible: 4,50 cents,1,0.292240296,win,NA
626_SL,27,slots visible: 0,50 cents,1,0.354672631,win,NA
626_SL,28,slots visible: 0,50 cents,0,0.251214021,win,NA
626_SL,29,slots visible: 2,50 cents,0,0.401633239,win,NA
626_SL,30,slots visible: 3,50 cents,1,0.401836749,loss,NA
626_SL,31,slots visible: 5,50 cents,1,0.2580662,loss,NA
626_SL,32,slots visible: 0,50 cents,1,0.302345699,win,NA
626_SL,33,slots visible: 3,50 cents,1,0.258965279,win,NA
626_SL,34,slots visible: 3,50 cents,1,0.254992147,loss,NA
626_SL,35,slots visible: 1,50 cents,1,0.229344347,loss,NA
626_SL,36,slots visible: 2,50 cents,1,0.537999728,loss,NA
626_SL,37,slots visible: 1,50 cents,1,1.277753862,loss,NA
626_SL,38,slots visible: 0,50 cents,1,0.622581489,win,NA
626_SL,39,slots visible: 5,50 cents,1,0.306880096,loss,NA
626_SL,40,slots visible: 4,50 cents,1,0.551129039,win,NA
626_SL,41,slots visible: 2,50 cents,1,1.313381851,win,NA
626_SL,42,slots visible: 4,50 cents,1,0.451949999,loss,NA
626_SL,43,slots visible: 1,50 cents,1,0.328022237,loss,NA
626_SL,44,slots visible: 2,50 cents,1,0.270871479,loss,NA
626_SL,45,slots visible: 1,50 cents,1,0.48068798,loss,NA
626_SL,46,slots visible: 3,50 cents,1,0.459302155,win,NA
626_SL,47,slots visible: 2,50 cents,1,0.559486135,loss,NA
626_SL,48,slots visible: 3,50 cents,1,0.505974213,win,NA
626_SL,49,slots visible: 1,50 cents,0,0.294337854,win,NA
626_SL,50,slots visible: 0,50 cents,1,0.020967662,win,NA
626_SL,51,slots visible: 0,50 cents,1,0.001028692,win,NA
626_SL,52,slots visible: 3,50 cents,1,0.001049512,win,NA
626_SL,53,slots visible: 3,50 cents,0,0.429663042,loss,NA
626_SL,54,slots visible: 5,50 cents,1,0.080078741,win,NA
626_SL,55,slots visible: 0,50 cents,1,0.336284909,loss,NA
626_SL,56,slots visible: 5,50 cents,1,0.214639448,win,NA
626_SL,57,slots visible: 2,50 cents,1,0.292961084,loss,NA
626_SL,58,slots visible: 0,50 cents,1,0.001037489,loss,NA
626_SL,59,slots visible: 3,50 cents,1,0.013707584,win,NA
626_SL,60,slots visible: 3,50 cents,1,0.001238653,loss,NA
626_SL,61,slots visible: 5,50 cents,1,0.094766926,win,NA
626_SL,62,slots visible: 0,50 cents,0,0.053142144,loss,NA
626_SL,63,slots visible: 1,50 cents,1,0.083160712,loss,NA
626_SL,64,slots visible: 1,50 cents,1,0.019872111,win,NA
626_SL,65,slots visible: 2,50 cents,1,0.239467637,win,NA
626_SL,66,slots visible: 4,50 cents,1,0.336447951,win,NA
626_SL,67,slots visible: 1,50 cents,1,1.062849031,win,NA
626_SL,68,slots visible: 4,50 cents,0,0.067329178,win,NA
626_SL,69,slots visible: 2,50 cents,1,0.247506859,loss,NA
626_SL,70,slots visible: 2,50 cents,1,0.590082682,win,NA
626_SL,71,slots visible: 2,50 cents,1,0.912542711,win,NA
626_SL,72,slots visible: 0,50 cents,1,1.794503243,loss,NA
626_SL,73,slots visible: 4,50 cents,1,2.020935113,win,NA
626_SL,74,slots visible: 5,50 cents,1,0.961486513,loss,NA
626_SL,75,slots visible: 1,50 cents,1,0.737841612,win,NA
626_SL,76,slots visible: 2,50 cents,1,0.782181519,win,NA
626_SL,77,slots visible: 5,50 cents,1,0.572364725,win,NA
626_SL,78,slots visible: 5,50 cents,0,0.258982874,loss,NA
626_SL,79,slots visible: 4,50 cents,1,0.574966365,loss,NA
626_SL,80,slots visible: 4,50 cents,1,0.261605334,win,NA
626_SL,81,slots visible: 5,50 cents,1,0.657961982,win,NA
626_SL,82,slots visible: 5,50 cents,1,0.7504686,win,NA
626_SL,83,slots visible: 4,50 cents,0,0.001019015,win,NA
626_SL,84,slots visible: 5,50 cents,1,0.288817579,win,NA
626_SL,85,slots visible: 5,50 cents,1,0.319169856,win,NA
626_SL,86,slots visible: 2,50 cents,1,0.287582445,loss,NA
626_SL,87,slots visible: 1,50 cents,1,0.397984432,win,NA
626_SL,88,slots visible: 4,50 cents,1,0.318278401,loss,NA
626_SL,89,slots visible: 3,50 cents,1,0.001036903,loss,NA
626_SL,90,slots visible: 5,50 cents,1,0.318920307,loss,NA
626_SL,91,slots visible: 2,50 cents,1,0.345198284,win,NA
626_SL,92,slots visible: 1,50 cents,1,0.277659732,win,NA
626_SL,93,slots visible: 1,50 cents,0,0.285946449,loss,NA
626_SL,94,slots visible: 0,50 cents,0,0.342512777,loss,NA
626_SL,95,slots visible: 0,50 cents,0,0.322641252,loss,NA
626_SL,96,slots visible: 4,50 cents,1,1.730869497,win,NA
626_SL,97,slots visible: 3,50 cents,1,0.305413594,loss,NA
626_SL,98,slots visible: 4,50 cents,1,0.293854006,loss,NA
626_SL,99,slots visible: 2,50 cents,1,0.340171241,loss,NA
626_SL,100,slots visible: 4,50 cents,1,0.288524337,loss,NA
626_SL,101,slots visible: 0,50 cents,1,0.334784098,win,NA
626_SL,102,slots visible: 1,50 cents,1,0.276898183,loss,NA
626_SL,103,slots visible: 0,50 cents,1,0.295505543,win,NA
626_SL,104,slots visible: 5,50 cents,1,0.325915002,loss,NA
626_SL,105,slots visible: 1,50 cents,1,0.214199878,loss,NA
626_SL,106,slots visible: 5,50 cents,1,0.638556418,loss,NA
626_SL,107,slots visible: 1,50 cents,1,1.096776218,win,NA
626_SL,108,slots visible: 4,50 cents,1,0.349111302,win,NA
626_SL,109,slots visible: 0,50 cents,1,0.175552086,win,NA
626_SL,110,slots visible: 5,50 cents,1,0.293959866,loss,NA
626_SL,111,slots visible: 2,50 cents,1,0.884236967,loss,NA
626_SL,112,slots visible: 4,50 cents,1,0.740558496,loss,NA
626_SL,113,slots visible: 3,50 cents,1,1.802987898,loss,NA
626_SL,114,slots visible: 5,50 cents,0,1.283338944,loss,NA
626_SL,115,slots visible: 3,50 cents,1,0.291733868,loss,NA
626_SL,116,slots visible: 2,50 cents,1,0.844142321,win,NA
626_SL,117,slots visible: 5,50 cents,1,0.340461551,win,NA
626_SL,118,slots visible: 3,50 cents,1,0.144774315,win,NA
626_SL,119,slots visible: 4,50 cents,1,0.37302487,loss,NA
626_SL,120,slots visible: 4,50 cents,1,1.622862415,loss,NA
626_SL,121,slots visible: 2,50 cents,1,0.338168401,win,NA
626_SL,122,slots visible: 5,50 cents,1,0.494551569,loss,NA
626_SL,123,slots visible: 2,50 cents,1,0.340964167,loss,NA
626_SL,124,slots visible: 5,50 cents,1,0.593158495,loss,NA
626_SL,125,slots visible: 4,50 cents,1,0.371577136,loss,NA
626_SL,126,slots visible: 1,50 cents,1,0.305839088,loss,NA
626_SL,127,slots visible: 0,50 cents,1,0.246131262,loss,NA
626_SL,128,slots visible: 4,50 cents,1,0.230306473,win,NA
626_SL,129,slots visible: 3,50 cents,1,0.288770367,win,NA
626_SL,130,slots visible: 5,50 cents,1,0.351136429,win,NA
626_SL,131,slots visible: 3,50 cents,1,0.225653313,win,NA
626_SL,132,slots visible: 5,50 cents,1,0.245901067,loss,NA
626_SL,133,slots visible: 2,50 cents,1,0.284264122,win,NA
626_SL,134,slots visible: 5,50 cents,1,0.001022827,loss,NA
626_SL,135,slots visible: 3,50 cents,1,0.158901235,loss,NA
626_SL,136,slots visible: 5,50 cents,1,0.233320704,loss,NA
626_SL,137,slots visible: 1,50 cents,1,0.259688413,loss,NA
626_SL,138,slots visible: 4,50 cents,1,0.074056729,win,NA
626_SL,139,slots visible: 2,50 cents,1,0.052338955,loss,NA
626_SL,140,slots visible: 0,50 cents,1,0.242565736,loss,NA
626_SL,141,slots visible: 1,50 cents,1,0.066999867,win,NA
626_SL,142,slots visible: 0,50 cents,1,0.279133271,win,NA
626_SL,143,slots visible: 4,50 cents,1,0.239549745,loss,NA
626_SL,144,slots visible: 1,50 cents,1,0.105895156,loss,NA
626_SL,145,slots visible: 5,50 cents,1,0.1981056,win,NA
626_SL,146,slots visible: 3,50 cents,1,0.062645521,win,NA
626_SL,147,slots visible: 4,50 cents,1,0.29091719,loss,NA
626_SL,148,slots visible: 3,50 cents,1,0.257120789,win,NA
626_SL,149,slots visible: 4,50 cents,1,0.13567913,win,NA
626_SL,150,slots visible: 0,50 cents,1,0.236161923,loss,NA
626_SL,151,slots visible: 3,50 cents,1,0.001038369,win,NA
626_SL,152,slots visible: 0,50 cents,1,1.292666377,loss,NA
626_SL,153,slots visible: 4,50 cents,1,0.21105838,win,NA
626_SL,154,slots visible: 0,50 cents,1,0.001080009,win,NA
626_SL,155,slots visible: 1,50 cents,1,0.20945728,loss,NA
626_SL,156,slots visible: 5,50 cents,1,0.208285779,win,NA
626_SL,157,slots visible: 1,50 cents,1,0.040345075,win,NA
626_SL,158,slots visible: 1,50 cents,1,0.65672978,loss,NA
626_SL,159,slots visible: 3,50 cents,1,0.540811916,win,NA
626_SL,160,slots visible: 2,50 cents,1,0.001533361,loss,NA
626_SL,161,slots visible: 1,50 cents,1,0.577626654,win,NA
626_SL,162,slots visible: 5,50 cents,1,1.15010545,win,NA
626_SL,163,slots visible: 0,50 cents,1,0.192565091,win,NA
626_SL,164,slots visible: 1,50 cents,0,0.242822029,loss,NA
626_SL,165,slots visible: 0,50 cents,0,0.189232692,loss,NA
626_SL,166,slots visible: 0,50 cents,0,0.335501367,loss,NA
626_SL,167,slots visible: 3,50 cents,1,0.357872484,loss,NA
626_SL,168,slots visible: 0,50 cents,1,0.344194225,win,NA
626_SL,169,slots visible: 5,50 cents,0,0.212488813,loss,NA
626_SL,170,slots visible: 3,50 cents,1,0.626699482,loss,NA
626_SL,171,slots visible: 1,50 cents,1,0.391566837,loss,NA
626_SL,172,slots visible: 2,50 cents,1,0.225448924,win,NA
626_SL,173,slots visible: 2,50 cents,1,0.278072323,win,NA
626_SL,174,slots visible: 1,50 cents,1,0.280176039,win,NA
626_SL,175,slots visible: 2,50 cents,1,0.234757589,win,NA
626_SL,176,slots visible: 4,50 cents,0,0.244904045,win,NA
626_SL,177,slots visible: 0,50 cents,0,0.277238343,win,NA
626_SL,178,slots visible: 2,50 cents,1,0.317584591,loss,NA
626_SL,179,slots visible: 3,50 cents,1,0.360011683,loss,NA
626_SL,180,slots visible: 3,50 cents,1,0.112393978,loss,NA
627_SK,1,slots visible: 3,50 cents,1,2.048478689,loss,NA
627_SK,2,slots visible: 0,50 cents,1,1.181256831,win,NA
627_SK,3,slots visible: 4,50 cents,1,1.191521581,win,NA
627_SK,4,slots visible: 1,50 cents,1,1.464177915,loss,NA
627_SK,5,slots visible: 1,50 cents,0,0.634033084,win,NA
627_SK,6,slots visible: 3,50 cents,1,1.612730296,win,NA
627_SK,7,slots visible: 5,50 cents,1,1.160763986,win,NA
627_SK,8,slots visible: 5,50 cents,1,0.951488761,win,NA
627_SK,9,slots visible: 3,50 cents,0,0.513647479,loss,NA
627_SK,10,slots visible: 5,50 cents,0,1.395916035,loss,NA
627_SK,11,slots visible: 2,50 cents,1,0.918621267,loss,NA
627_SK,12,slots visible: 5,50 cents,1,1.096860606,win,NA
627_SK,13,slots visible: 4,50 cents,1,1.293399024,win,NA
627_SK,14,slots visible: 0,50 cents,1,2.035829856,loss,NA
627_SK,15,slots visible: 1,50 cents,1,0.902018318,win,NA
627_SK,16,slots visible: 5,50 cents,1,1.730248845,loss,NA
627_SK,17,slots visible: 0,50 cents,1,0.944851452,win,NA
627_SK,18,slots visible: 1,50 cents,0,0.651028689,loss,NA
627_SK,19,slots visible: 0,50 cents,1,1.185554044,win,NA
627_SK,20,slots visible: 1,50 cents,0,0.582050117,loss,NA
627_SK,21,slots visible: 5,50 cents,1,0.946444946,win,NA
627_SK,22,slots visible: 2,50 cents,1,0.764565556,loss,NA
627_SK,23,slots visible: 5,50 cents,1,0.821272701,loss,NA
627_SK,24,slots visible: 0,50 cents,0,0.737346842,loss,NA
627_SK,25,slots visible: 5,50 cents,0,0.839557411,loss,NA
627_SK,26,slots visible: 0,50 cents,1,0.848025156,loss,NA
627_SK,27,slots visible: 4,50 cents,1,0.798367329,loss,NA
627_SK,28,slots visible: 4,50 cents,1,1.022588668,loss,NA
627_SK,29,slots visible: 4,50 cents,1,0.713113362,win,NA
627_SK,30,slots visible: 2,50 cents,1,0.681531455,loss,NA
627_SK,31,slots visible: 3,50 cents,1,0.808102772,win,NA
627_SK,32,slots visible: 5,50 cents,0,1.278095737,loss,NA
627_SK,33,slots visible: 3,50 cents,0,1.432644686,loss,NA
627_SK,34,slots visible: 5,50 cents,1,0.707179548,loss,NA
627_SK,35,slots visible: 1,50 cents,1,0.759174832,win,NA
627_SK,36,slots visible: 0,50 cents,1,0.969734763,win,NA
627_SK,37,slots visible: 0,50 cents,1,1.280271909,loss,NA
627_SK,38,slots visible: 1,50 cents,1,1.248575342,win,NA
627_SK,39,slots visible: 4,50 cents,1,0.734948684,loss,NA
627_SK,40,slots visible: 2,50 cents,1,0.62909865,loss,NA
627_SK,41,slots visible: 0,50 cents,1,0.86359295,loss,NA
627_SK,42,slots visible: 2,50 cents,1,0.937842602,loss,NA
627_SK,43,slots visible: 5,50 cents,1,1.022091324,win,NA
627_SK,44,slots visible: 4,50 cents,1,0.962753771,loss,NA
627_SK,45,slots visible: 5,50 cents,1,0.898964464,loss,NA
627_SK,46,slots visible: 3,50 cents,1,0.895464584,loss,NA
627_SK,47,slots visible: 3,50 cents,1,1.157843851,loss,NA
627_SK,48,slots visible: 4,50 cents,1,1.239893822,win,NA
627_SK,49,slots visible: 0,50 cents,1,1.056634127,loss,NA
627_SK,50,slots visible: 5,50 cents,1,1.014815034,loss,NA
627_SK,51,slots visible: 2,50 cents,1,0.981158711,win,NA
627_SK,52,slots visible: 0,50 cents,0,0.507393441,win,NA
627_SK,53,slots visible: 2,50 cents,0,1.10215368,win,NA
627_SK,54,slots visible: 0,50 cents,1,1.12286382,win,NA
627_SK,55,slots visible: 0,50 cents,1,1.170541949,loss,NA
627_SK,56,slots visible: 1,50 cents,1,1.05715757,win,NA
627_SK,57,slots visible: 1,50 cents,0,0.525449127,win,NA
627_SK,58,slots visible: 3,50 cents,1,0.4378709,loss,NA
627_SK,59,slots visible: 2,50 cents,1,0.478172743,loss,NA
627_SK,60,slots visible: 0,50 cents,0,1.251810129,loss,NA
627_SK,61,slots visible: 0,50 cents,1,0.821094115,win,NA
627_SK,62,slots visible: 3,50 cents,1,1.377779413,win,NA
627_SK,63,slots visible: 1,50 cents,1,1.373697735,loss,NA
627_SK,64,slots visible: 1,50 cents,1,1.098315102,win,NA
627_SK,65,slots visible: 0,50 cents,0,0.894702733,loss,NA
627_SK,66,slots visible: 4,50 cents,1,0.987091645,win,NA
627_SK,67,slots visible: 3,50 cents,1,0.983429601,win,NA
627_SK,68,slots visible: 4,50 cents,0,0.969950005,loss,NA
627_SK,69,slots visible: 0,50 cents,1,0.672219751,loss,NA
627_SK,70,slots visible: 2,50 cents,1,0.530440158,win,NA
627_SK,71,slots visible: 0,50 cents,1,0.832772307,loss,NA
627_SK,72,slots visible: 1,50 cents,1,0.899198766,loss,NA
627_SK,73,slots visible: 1,50 cents,1,0.905607638,loss,NA
627_SK,74,slots visible: 1,50 cents,1,0.870145511,loss,NA
627_SK,75,slots visible: 3,50 cents,1,0.992288828,loss,NA
627_SK,76,slots visible: 2,50 cents,1,1.058706783,win,NA
627_SK,77,slots visible: 3,50 cents,1,0.815046229,loss,NA
627_SK,78,slots visible: 2,50 cents,1,1.195429952,win,NA
627_SK,79,slots visible: 1,50 cents,1,0.491658497,loss,NA
627_SK,80,slots visible: 0,50 cents,1,1.090045591,win,NA
627_SK,81,slots visible: 0,50 cents,0,0.592700778,win,NA
627_SK,82,slots visible: 2,50 cents,1,0.434800917,loss,NA
627_SK,83,slots visible: 4,50 cents,1,0.517236505,loss,NA
627_SK,84,slots visible: 1,50 cents,1,0.557752124,win,NA
627_SK,85,slots visible: 0,50 cents,1,0.904051679,win,NA
627_SK,86,slots visible: 1,50 cents,0,0.634313134,loss,NA
627_SK,87,slots visible: 4,50 cents,0,0.8585984,loss,NA
627_SK,88,slots visible: 3,50 cents,1,0.728816049,win,NA
627_SK,89,slots visible: 5,50 cents,1,1.231280041,win,NA
627_SK,90,slots visible: 1,50 cents,0,1.34567465,win,NA
627_SK,91,slots visible: 3,50 cents,1,0.726256313,win,NA
627_SK,92,slots visible: 1,50 cents,1,0.892483748,loss,NA
627_SK,93,slots visible: 5,50 cents,1,0.59507665,win,NA
627_SK,94,slots visible: 2,50 cents,1,0.837145177,win,NA
627_SK,95,slots visible: 2,50 cents,1,0.925536866,win,NA
627_SK,96,slots visible: 5,50 cents,0,0.955949605,win,NA
627_SK,97,slots visible: 5,50 cents,1,0.966474757,win,NA
627_SK,98,slots visible: 0,50 cents,0,0.614500617,loss,NA
627_SK,99,slots visible: 3,50 cents,1,0.628904521,win,NA
627_SK,100,slots visible: 2,50 cents,1,1.039283403,win,NA
627_SK,101,slots visible: 2,50 cents,0,0.575592568,win,NA
627_SK,102,slots visible: 3,50 cents,0,0.747993691,win,NA
627_SK,103,slots visible: 3,50 cents,1,0.542786948,win,NA
627_SK,104,slots visible: 4,50 cents,1,0.882789945,loss,NA
627_SK,105,slots visible: 3,50 cents,1,0.803147223,loss,NA
627_SK,106,slots visible: 5,50 cents,1,0.925298458,win,NA
627_SK,107,slots visible: 2,50 cents,1,0.923740153,win,NA
627_SK,108,slots visible: 5,50 cents,0,0.740074607,win,NA
627_SK,109,slots visible: 0,50 cents,1,0.810672185,loss,NA
627_SK,110,slots visible: 4,50 cents,1,0.913257815,loss,NA
627_SK,111,slots visible: 5,50 cents,1,0.937448774,loss,NA
627_SK,112,slots visible: 2,50 cents,1,0.621899483,loss,NA
627_SK,113,slots visible: 2,50 cents,1,0.546199734,win,NA
627_SK,114,slots visible: 2,50 cents,1,0.860235587,loss,NA
627_SK,115,slots visible: 5,50 cents,1,0.496711696,loss,NA
627_SK,116,slots visible: 4,50 cents,1,0.669067366,loss,NA
627_SK,117,slots visible: 2,50 cents,1,0.607738092,win,NA
627_SK,118,slots visible: 2,50 cents,1,0.877825013,loss,NA
627_SK,119,slots visible: 1,50 cents,1,0.894172546,win,NA
627_SK,120,slots visible: 2,50 cents,0,1.799078448,loss,NA
627_SK,121,slots visible: 0,50 cents,0,1.463623389,win,NA
627_SK,122,slots visible: 4,50 cents,1,0.851825319,loss,NA
627_SK,123,slots visible: 1,50 cents,1,0.433953146,win,NA
627_SK,124,slots visible: 4,50 cents,1,1.060315233,win,NA
627_SK,125,slots visible: 4,50 cents,0,0.42663111,win,NA
627_SK,126,slots visible: 1,50 cents,0,1.101269839,loss,NA
627_SK,127,slots visible: 2,50 cents,1,0.721145638,win,NA
627_SK,128,slots visible: 4,50 cents,1,0.695680236,loss,NA
627_SK,129,slots visible: 0,50 cents,1,0.572178609,win,NA
627_SK,130,slots visible: 2,50 cents,1,0.610487558,loss,NA
627_SK,131,slots visible: 4,50 cents,1,0.688905395,loss,NA
627_SK,132,slots visible: 4,50 cents,1,0.687203401,win,NA
627_SK,133,slots visible: 3,50 cents,1,1.181471779,win,NA
627_SK,134,slots visible: 5,50 cents,1,0.689761378,win,NA
627_SK,135,slots visible: 4,50 cents,1,0.496265084,win,NA
627_SK,136,slots visible: 0,50 cents,0,0.556721954,win,NA
627_SK,137,slots visible: 0,50 cents,1,0.631051075,loss,NA
627_SK,138,slots visible: 5,50 cents,1,0.945256424,win,NA
627_SK,139,slots visible: 3,50 cents,1,0.827797404,win,NA
627_SK,140,slots visible: 1,50 cents,1,0.712113103,loss,NA
627_SK,141,slots visible: 1,50 cents,1,0.770348056,loss,NA
627_SK,142,slots visible: 2,50 cents,1,0.896819962,win,NA
627_SK,143,slots visible: 5,50 cents,1,0.663180765,loss,NA
627_SK,144,slots visible: 5,50 cents,1,0.505527816,win,NA
627_SK,145,slots visible: 1,50 cents,1,0.741775722,loss,NA
627_SK,146,slots visible: 4,50 cents,1,0.722290174,win,NA
627_SK,147,slots visible: 3,50 cents,1,0.572534608,loss,NA
627_SK,148,slots visible: 1,50 cents,1,0.72910343,win,NA
627_SK,149,slots visible: 2,50 cents,1,0.591144233,loss,NA
627_SK,150,slots visible: 0,50 cents,1,0.849697532,win,NA
627_SK,151,slots visible: 4,50 cents,1,0.719881459,loss,NA
627_SK,152,slots visible: 5,50 cents,1,0.784368982,loss,NA
627_SK,153,slots visible: 5,50 cents,1,1.002698441,loss,NA
627_SK,154,slots visible: 4,50 cents,1,0.163041327,win,NA
627_SK,155,slots visible: 2,50 cents,1,0.54733254,loss,NA
627_SK,156,slots visible: 1,50 cents,1,0.685765914,win,NA
627_SK,157,slots visible: 3,50 cents,1,0.598182408,win,NA
627_SK,158,slots visible: 1,50 cents,1,1.070510484,loss,NA
627_SK,159,slots visible: 4,50 cents,0,0.624926652,loss,NA
627_SK,160,slots visible: 5,50 cents,1,0.587091587,loss,NA
627_SK,161,slots visible: 3,50 cents,0,0.775790098,win,NA
627_SK,162,slots visible: 5,50 cents,1,0.364106276,loss,NA
627_SK,163,slots visible: 4,50 cents,1,0.740284864,win,NA
627_SK,164,slots visible: 4,50 cents,1,0.474773739,win,NA
627_SK,165,slots visible: 3,50 cents,1,0.516914816,loss,NA
627_SK,166,slots visible: 4,50 cents,1,0.535235008,win,NA
627_SK,167,slots visible: 5,50 cents,0,0.683591501,win,NA
627_SK,168,slots visible: 3,50 cents,1,0.388081699,loss,NA
627_SK,169,slots visible: 0,50 cents,1,0.478390917,loss,NA
627_SK,170,slots visible: 3,50 cents,1,0.456485217,loss,NA
627_SK,171,slots visible: 3,50 cents,1,0.621276337,win,NA
627_SK,172,slots visible: 4,50 cents,1,0.587164018,win,NA
627_SK,173,slots visible: 1,50 cents,0,0.711685552,win,NA
627_SK,174,slots visible: 1,50 cents,1,0.651918395,win,NA
627_SK,175,slots visible: 3,50 cents,1,0.530601149,loss,NA
627_SK,176,slots visible: 2,50 cents,1,0.432828258,loss,NA
627_SK,177,slots visible: 3,50 cents,1,1.257104375,loss,NA
627_SK,178,slots visible: 3,50 cents,1,1.389613611,win,NA
627_SK,179,slots visible: 2,50 cents,1,0.601938291,win,NA
627_SK,180,slots visible: 0,50 cents,1,1.073969016,win,NA
628_ZN,1,slots visible: 5,50 cents,1,1.174542306,loss,NA
628_ZN,2,slots visible: 4,50 cents,0,0.912228134,loss,NA
628_ZN,3,slots visible: 4,50 cents,0,2.342545869,win,NA
628_ZN,4,slots visible: 1,50 cents,1,0.424876603,loss,NA
628_ZN,5,slots visible: 0,50 cents,1,0.673483404,win,NA
628_ZN,6,slots visible: 0,50 cents,1,0.467770494,loss,NA
628_ZN,7,slots visible: 3,50 cents,1,1.78412122,loss,NA
628_ZN,8,slots visible: 1,50 cents,1,0.644554352,loss,NA
628_ZN,9,slots visible: 4,50 cents,1,0.394788654,loss,NA
628_ZN,10,slots visible: 5,50 cents,1,2.41119885,loss,NA
628_ZN,11,slots visible: 5,50 cents,0,0.491631419,win,NA
628_ZN,12,slots visible: 0,50 cents,1,1.665998951,loss,NA
628_ZN,13,slots visible: 2,50 cents,0,1.590008434,win,NA
628_ZN,14,slots visible: 4,50 cents,1,2.432732888,loss,NA
628_ZN,15,slots visible: 2,50 cents,1,2.003277875,win,NA
628_ZN,16,slots visible: 5,50 cents,0,1.225377815,loss,NA
628_ZN,17,slots visible: 4,50 cents,0,1.199893787,loss,NA
628_ZN,18,slots visible: 2,50 cents,1,2.512395693,win,NA
628_ZN,19,slots visible: 0,50 cents,1,1.98674569,win,NA
628_ZN,20,slots visible: 1,50 cents,1,1.660966308,loss,NA
628_ZN,21,slots visible: 5,50 cents,1,1.633758302,loss,NA
628_ZN,22,slots visible: 3,50 cents,0,2.996177279,win,NA
628_ZN,23,slots visible: 3,50 cents,1,1.542360481,loss,NA
628_ZN,24,slots visible: 4,50 cents,0,1.276866377,loss,NA
628_ZN,25,slots visible: 2,50 cents,1,1.911329343,loss,NA
628_ZN,26,slots visible: 4,50 cents,0,1.905712851,win,NA
628_ZN,27,slots visible: 3,50 cents,0,2.086049061,loss,NA
628_ZN,28,slots visible: 2,50 cents,1,2.108351984,loss,NA
628_ZN,29,slots visible: 3,50 cents,0,2.430795429,loss,NA
628_ZN,30,slots visible: 2,50 cents,1,0.795052749,loss,NA
628_ZN,31,slots visible: 1,50 cents,1,0.981752927,win,NA
628_ZN,32,slots visible: 3,50 cents,0,1.617855124,win,NA
628_ZN,33,slots visible: 5,50 cents,1,2.510589314,win,NA
628_ZN,34,slots visible: 3,50 cents,1,1.344861026,win,NA
628_ZN,35,slots visible: 3,50 cents,0,1.291160822,loss,NA
628_ZN,36,slots visible: 5,50 cents,1,1.319884016,loss,NA
628_ZN,37,slots visible: 5,50 cents,1,1.529751306,win,NA
628_ZN,38,slots visible: 5,50 cents,1,1.520098319,win,NA
628_ZN,39,slots visible: 2,50 cents,1,1.248854005,win,NA
628_ZN,40,slots visible: 3,50 cents,1,0.889076565,win,NA
628_ZN,41,slots visible: 5,50 cents,1,1.903482149,win,NA
628_ZN,42,slots visible: 5,50 cents,0,2.499917892,win,NA
628_ZN,43,slots visible: 4,50 cents,1,3.162170072,win,NA
628_ZN,44,slots visible: 2,50 cents,1,0.850636749,loss,NA
628_ZN,45,slots visible: 1,50 cents,0,1.105108418,win,NA
628_ZN,46,slots visible: 3,50 cents,1,3.259448304,win,NA
628_ZN,47,slots visible: 3,50 cents,1,0.895981861,win,NA
628_ZN,48,slots visible: 5,50 cents,1,1.398392029,win,NA
628_ZN,49,slots visible: 5,50 cents,1,1.822548133,loss,NA
628_ZN,50,slots visible: 3,50 cents,0,1.539000497,loss,NA
628_ZN,51,slots visible: 1,50 cents,1,1.247528251,win,NA
628_ZN,52,slots visible: 3,50 cents,1,1.191726664,win,NA
628_ZN,53,slots visible: 1,50 cents,1,1.986390865,win,NA
628_ZN,54,slots visible: 4,50 cents,1,2.588484154,loss,NA
628_ZN,55,slots visible: 1,50 cents,1,1.967057912,win,NA
628_ZN,56,slots visible: 2,50 cents,1,2.781628651,win,NA
628_ZN,57,slots visible: 4,50 cents,0,1.777912377,win,NA
628_ZN,58,slots visible: 0,50 cents,1,1.710278417,loss,NA
628_ZN,59,slots visible: 0,50 cents,1,1.722703141,win,NA
628_ZN,60,slots visible: 5,50 cents,0,2.349179036,loss,NA
628_ZN,61,slots visible: 2,50 cents,1,0.913967361,win,NA
628_ZN,62,slots visible: 5,50 cents,1,1.690316163,win,NA
628_ZN,63,slots visible: 0,50 cents,1,1.648947432,win,NA
628_ZN,64,slots visible: 0,50 cents,0,2.063244398,loss,NA
628_ZN,65,slots visible: 5,50 cents,0,2.867480065,win,NA
628_ZN,66,slots visible: 3,50 cents,1,0.424036167,loss,NA
628_ZN,67,slots visible: 1,50 cents,1,2.282320119,win,NA
628_ZN,68,slots visible: 0,50 cents,1,1.026884265,loss,NA
628_ZN,69,slots visible: 3,50 cents,0,1.693167956,win,NA
628_ZN,70,slots visible: 4,50 cents,0,1.98761369,loss,NA
628_ZN,71,slots visible: 5,50 cents,1,2.669915804,loss,NA
628_ZN,72,slots visible: 3,50 cents,1,0.736319314,loss,NA
628_ZN,73,slots visible: 4,50 cents,0,0.620914532,win,NA
628_ZN,74,slots visible: 4,50 cents,1,2.635216895,win,NA
628_ZN,75,slots visible: 5,50 cents,1,1.211528514,loss,NA
628_ZN,76,slots visible: 1,50 cents,1,0.987871158,loss,NA
628_ZN,77,slots visible: 0,50 cents,1,2.110279179,win,NA
628_ZN,78,slots visible: 3,50 cents,0,0.688582801,win,NA
628_ZN,79,slots visible: 1,50 cents,1,0.681070198,win,NA
628_ZN,80,slots visible: 2,50 cents,1,2.289325704,win,NA
628_ZN,81,slots visible: 2,50 cents,1,0.591917155,loss,NA
628_ZN,82,slots visible: 0,50 cents,1,0.690149015,win,NA
628_ZN,83,slots visible: 3,50 cents,1,2.202549107,win,NA
628_ZN,84,slots visible: 0,50 cents,1,2.86682408,loss,NA
628_ZN,85,slots visible: 4,50 cents,1,2.477269821,loss,NA
628_ZN,86,slots visible: 5,50 cents,0,3.06984091,win,NA
628_ZN,87,slots visible: 0,50 cents,0,3.536171578,win,NA
628_ZN,88,slots visible: 1,50 cents,1,0.678804892,win,NA
628_ZN,89,slots visible: 0,50 cents,1,1.550853397,loss,NA
628_ZN,90,slots visible: 4,50 cents,1,1.121429175,loss,NA
628_ZN,91,slots visible: 3,50 cents,1,2.561720119,loss,NA
628_ZN,92,slots visible: 0,50 cents,0,1.074297917,loss,NA
628_ZN,93,slots visible: 2,50 cents,1,0.906581438,loss,NA
628_ZN,94,slots visible: 2,50 cents,0,0.551086232,win,NA
628_ZN,95,slots visible: 1,50 cents,1,0.849274047,win,NA
628_ZN,96,slots visible: 0,50 cents,1,1.167786563,win,NA
628_ZN,97,slots visible: 5,50 cents,1,2.760087867,loss,NA
628_ZN,98,slots visible: 3,50 cents,0,1.280792907,win,NA
628_ZN,99,slots visible: 2,50 cents,1,1.217007181,loss,NA
628_ZN,100,slots visible: 2,50 cents,0,0.813248211,loss,NA
628_ZN,101,slots visible: 4,50 cents,0,2.211665165,win,NA
628_ZN,102,slots visible: 1,50 cents,1,2.267906324,loss,NA
628_ZN,103,slots visible: 5,50 cents,1,1.438423277,win,NA
628_ZN,104,slots visible: 4,50 cents,1,0.911004429,win,NA
628_ZN,105,slots visible: 2,50 cents,1,1.473290801,loss,NA
628_ZN,106,slots visible: 1,50 cents,0,1.251692894,win,NA
628_ZN,107,slots visible: 4,50 cents,0,1.665919189,loss,NA
628_ZN,108,slots visible: 2,50 cents,1,1.52638927,win,NA
628_ZN,109,slots visible: 2,50 cents,1,0.780772673,win,NA
628_ZN,110,slots visible: 5,50 cents,1,2.139091227,win,NA
628_ZN,111,slots visible: 0,50 cents,1,1.903294473,win,NA
628_ZN,112,slots visible: 1,50 cents,1,1.588097953,loss,NA
628_ZN,113,slots visible: 1,50 cents,0,1.246206603,loss,NA
628_ZN,114,slots visible: 1,50 cents,0,2.748850779,win,NA
628_ZN,115,slots visible: 3,50 cents,1,0.696983053,win,NA
628_ZN,116,slots visible: 0,50 cents,1,0.445494256,win,NA
628_ZN,117,slots visible: 2,50 cents,1,0.443867635,loss,NA
628_ZN,118,slots visible: 2,50 cents,0,1.882191209,win,NA
628_ZN,119,slots visible: 0,50 cents,1,1.746608053,loss,NA
628_ZN,120,slots visible: 2,50 cents,1,1.609458978,loss,NA
628_ZN,121,slots visible: 2,50 cents,1,2.817683224,loss,NA
628_ZN,122,slots visible: 4,50 cents,0,1.742173919,loss,NA
628_ZN,123,slots visible: 1,50 cents,1,1.122798915,loss,NA
628_ZN,124,slots visible: 1,50 cents,0,0.787097934,loss,NA
628_ZN,125,slots visible: 0,50 cents,1,0.823290332,win,NA
628_ZN,126,slots visible: 0,50 cents,1,1.881776563,win,NA
628_ZN,127,slots visible: 0,50 cents,1,2.738053556,loss,NA
628_ZN,128,slots visible: 5,50 cents,1,2.718421201,win,NA
628_ZN,129,slots visible: 1,50 cents,1,2.030859473,loss,NA
628_ZN,130,slots visible: 0,50 cents,1,3.105251814,loss,NA
628_ZN,131,slots visible: 2,50 cents,1,2.491875397,loss,NA
628_ZN,132,slots visible: 2,50 cents,0,2.162035473,win,NA
628_ZN,133,slots visible: 1,50 cents,1,0.65880481,loss,NA
628_ZN,134,slots visible: 2,50 cents,0,2.703001581,loss,NA
628_ZN,135,slots visible: 3,50 cents,1,1.395399186,win,NA
628_ZN,136,slots visible: 5,50 cents,1,2.539696951,loss,NA
628_ZN,137,slots visible: 2,50 cents,1,1.616424096,win,NA
628_ZN,138,slots visible: 1,50 cents,1,1.174612684,loss,NA
628_ZN,139,slots visible: 0,50 cents,0,1.621169947,loss,NA
628_ZN,140,slots visible: 1,50 cents,1,0.545475899,win,NA
628_ZN,141,slots visible: 3,50 cents,1,1.291791588,win,NA
628_ZN,142,slots visible: 4,50 cents,1,1.938172554,loss,NA
628_ZN,143,slots visible: 4,50 cents,1,1.134448304,win,NA
628_ZN,144,slots visible: 5,50 cents,1,2.68292115,win,NA
628_ZN,145,slots visible: 4,50 cents,0,0.697397699,win,NA
628_ZN,146,slots visible: 0,50 cents,1,1.991631126,loss,NA
628_ZN,147,slots visible: 4,50 cents,0,3.08009446,win,NA
628_ZN,148,slots visible: 5,50 cents,0,1.984501498,loss,NA
628_ZN,149,slots visible: 3,50 cents,1,0.804775528,loss,NA
628_ZN,150,slots visible: 4,50 cents,1,1.83537812,win,NA
628_ZN,151,slots visible: 4,50 cents,1,0.475708887,loss,NA
628_ZN,152,slots visible: 1,50 cents,1,2.780113462,win,NA
628_ZN,153,slots visible: 3,50 cents,1,1.936886975,loss,NA
628_ZN,154,slots visible: 3,50 cents,1,3.132934581,loss,NA
628_ZN,155,slots visible: 3,50 cents,1,1.571344955,loss,NA
628_ZN,156,slots visible: 1,50 cents,0,2.705769799,win,NA
628_ZN,157,slots visible: 1,50 cents,1,1.046170593,loss,NA
628_ZN,158,slots visible: 0,50 cents,1,1.302587932,win,NA
628_ZN,159,slots visible: 1,50 cents,1,1.459043569,win,NA
628_ZN,160,slots visible: 3,50 cents,1,0.777530867,loss,NA
628_ZN,161,slots visible: 2,50 cents,0,2.701509852,loss,NA
628_ZN,162,slots visible: 0,50 cents,1,2.444377585,loss,NA
628_ZN,163,slots visible: 5,50 cents,1,0.996623595,loss,NA
628_ZN,164,slots visible: 5,50 cents,0,0.55684524,win,NA
628_ZN,165,slots visible: 0,50 cents,0,1.917378662,win,NA
628_ZN,166,slots visible: 5,50 cents,1,0.829645797,loss,NA
628_ZN,167,slots visible: 2,50 cents,0,3.322046687,win,NA
628_ZN,168,slots visible: 2,50 cents,1,0.716589896,win,NA
628_ZN,169,slots visible: 4,50 cents,1,1.35098131,win,NA
628_ZN,170,slots visible: 4,50 cents,1,2.689251983,win,NA
628_ZN,171,slots visible: 4,50 cents,0,2.783728274,loss,NA
628_ZN,172,slots visible: 1,50 cents,1,1.210361698,loss,NA
628_ZN,173,slots visible: 0,50 cents,1,2.704383344,win,NA
628_ZN,174,slots visible: 0,50 cents,0,2.074958887,loss,NA
628_ZN,175,slots visible: 1,50 cents,1,1.787482376,loss,NA
628_ZN,176,slots visible: 3,50 cents,1,2.615722364,win,NA
628_ZN,177,slots visible: 3,50 cents,1,2.236029003,loss,NA
628_ZN,178,slots visible: 5,50 cents,1,2.950561796,loss,NA
628_ZN,179,slots visible: 4,50 cents,0,0.481170546,win,NA
628_ZN,180,slots visible: 4,50 cents,1,1.883309053,loss,NA
629_TS,1,slots visible: 3,50 cents,0,0.673913298,loss,NA
629_TS,2,slots visible: 3,50 cents,1,2.358675138,win,NA
629_TS,3,slots visible: 0,50 cents,1,3.365181916,win,NA
629_TS,4,slots visible: 5,50 cents,0,2.949892321,loss,NA
629_TS,5,slots visible: 1,50 cents,1,2.24046519,loss,NA
629_TS,6,slots visible: 4,50 cents,1,1.494495821,loss,NA
629_TS,7,slots visible: 3,50 cents,1,1.01296048,win,NA
629_TS,8,slots visible: 1,50 cents,1,1.353219051,loss,NA
629_TS,9,slots visible: 5,50 cents,1,1.289714252,win,NA
629_TS,10,slots visible: 0,50 cents,0,1.833854427,win,NA
629_TS,11,slots visible: 2,50 cents,1,3.172580214,loss,NA
629_TS,12,slots visible: 1,50 cents,1,1.992754834,win,NA
629_TS,13,slots visible: 2,50 cents,0,2.889157207,win,NA
629_TS,14,slots visible: 4,50 cents,1,1.43384604,loss,NA
629_TS,15,slots visible: 1,50 cents,1,3.002072058,loss,NA
629_TS,16,slots visible: 5,50 cents,1,2.338498523,win,NA
629_TS,17,slots visible: 0,50 cents,0,1.161150464,loss,NA
629_TS,18,slots visible: 5,50 cents,1,1.115369886,loss,NA
629_TS,19,slots visible: 4,50 cents,1,0.955713496,loss,NA
629_TS,20,slots visible: 0,50 cents,1,1.996273756,loss,NA
629_TS,21,slots visible: 3,50 cents,1,2.236469748,loss,NA
629_TS,22,slots visible: 2,50 cents,0,1.516874694,win,NA
629_TS,23,slots visible: 4,50 cents,1,0.413331316,win,NA
629_TS,24,slots visible: 5,50 cents,1,1.379645563,loss,NA
629_TS,25,slots visible: 4,50 cents,1,1.024015758,win,NA
629_TS,26,slots visible: 5,50 cents,1,3.124259267,win,NA
629_TS,27,slots visible: 0,50 cents,0,0.980989028,win,NA
629_TS,28,slots visible: 2,50 cents,0,3.009088787,win,NA
629_TS,29,slots visible: 4,50 cents,1,0.607605386,loss,NA
629_TS,30,slots visible: 0,50 cents,1,2.286005895,loss,NA
629_TS,31,slots visible: 4,50 cents,1,1.30245392,loss,NA
629_TS,32,slots visible: 4,50 cents,1,0.818884056,win,NA
629_TS,33,slots visible: 1,50 cents,0,1.711252865,win,NA
629_TS,34,slots visible: 0,50 cents,0,1.233581886,loss,NA
629_TS,35,slots visible: 3,50 cents,1,4.979824558,win,NA
629_TS,36,slots visible: 2,50 cents,1,2.52836749,loss,NA
629_TS,37,slots visible: 5,50 cents,1,2.910877161,loss,NA
629_TS,38,slots visible: 1,50 cents,0,2.043218218,loss,NA
629_TS,39,slots visible: 5,50 cents,1,0.755859004,win,NA
629_TS,40,slots visible: 0,50 cents,1,0.620082308,loss,NA
629_TS,41,slots visible: 1,50 cents,1,0.544482097,win,NA
629_TS,42,slots visible: 4,50 cents,0,1.002798715,loss,NA
629_TS,43,slots visible: 0,50 cents,1,0.451344169,win,NA
629_TS,44,slots visible: 3,50 cents,0,1.575459161,win,NA
629_TS,45,slots visible: 4,50 cents,0,1.334315699,loss,NA
629_TS,46,slots visible: 4,50 cents,0,1.46040891,loss,NA
629_TS,47,slots visible: 2,50 cents,1,0.506758675,loss,NA
629_TS,48,slots visible: 0,50 cents,1,1.068804881,loss,NA
629_TS,49,slots visible: 2,50 cents,1,0.767441533,loss,NA
629_TS,50,slots visible: 5,50 cents,1,0.685663563,loss,NA
629_TS,51,slots visible: 2,50 cents,1,0.748337603,win,NA
629_TS,52,slots visible: 5,50 cents,1,1.768297511,win,NA
629_TS,53,slots visible: 3,50 cents,0,2.366870705,win,NA
629_TS,54,slots visible: 2,50 cents,1,1.751370913,win,NA
629_TS,55,slots visible: 2,50 cents,0,3.975615635,win,NA
629_TS,56,slots visible: 5,50 cents,1,2.460214783,loss,NA
629_TS,57,slots visible: 2,50 cents,1,2.870550031,loss,NA
629_TS,58,slots visible: 1,50 cents,1,3.488977859,loss,NA
629_TS,59,slots visible: 3,50 cents,1,1.391601097,loss,NA
629_TS,60,slots visible: 0,50 cents,1,3.959404258,win,NA
629_TS,61,slots visible: 5,50 cents,1,0.670816648,loss,NA
629_TS,62,slots visible: 3,50 cents,1,2.177169474,win,NA
629_TS,63,slots visible: 1,50 cents,0,1.821636146,win,NA
629_TS,64,slots visible: 5,50 cents,1,0.593854028,loss,NA
629_TS,65,slots visible: 1,50 cents,1,2.964048061,win,NA
629_TS,66,slots visible: 5,50 cents,1,1.044694112,loss,NA
629_TS,67,slots visible: 4,50 cents,1,1.195160545,win,NA
629_TS,68,slots visible: 1,50 cents,1,2.39536693,win,NA
629_TS,69,slots visible: 1,50 cents,1,2.459934736,win,NA
629_TS,70,slots visible: 0,50 cents,1,1.664204888,win,NA
629_TS,71,slots visible: 1,50 cents,1,4.084588122,loss,NA
629_TS,72,slots visible: 2,50 cents,1,4.171098748,loss,NA
629_TS,73,slots visible: 2,50 cents,0,3.841649717,win,NA
629_TS,74,slots visible: 0,50 cents,1,3.948181832,loss,NA
629_TS,75,slots visible: 1,50 cents,1,3.400627424,loss,NA
629_TS,76,slots visible: 0,50 cents,1,0.465094061,win,NA
629_TS,77,slots visible: 1,50 cents,1,1.157477004,loss,NA
629_TS,78,slots visible: 4,50 cents,1,1.783873722,loss,NA
629_TS,79,slots visible: 2,50 cents,1,1.348278192,win,NA
629_TS,80,slots visible: 0,50 cents,1,0.952617139,win,NA
629_TS,81,slots visible: 3,50 cents,1,2.578930576,win,NA
629_TS,82,slots visible: 5,50 cents,1,3.855249175,win,NA
629_TS,83,slots visible: 2,50 cents,1,3.173727969,win,NA
629_TS,84,slots visible: 2,50 cents,0,2.366346679,loss,NA
629_TS,85,slots visible: 2,50 cents,0,0.934883535,loss,NA
629_TS,86,slots visible: 4,50 cents,1,2.053272362,win,NA
629_TS,87,slots visible: 2,50 cents,1,0.873502113,loss,NA
629_TS,88,slots visible: 2,50 cents,1,1.299850798,win,NA
629_TS,89,slots visible: 1,50 cents,0,1.104370911,loss,NA
629_TS,90,slots visible: 4,50 cents,1,2.340644479,win,NA
629_TS,91,slots visible: 2,50 cents,0,1.057064586,loss,NA
629_TS,92,slots visible: 5,50 cents,1,1.309470062,loss,NA
629_TS,93,slots visible: 3,50 cents,0,0.751844501,win,NA
629_TS,94,slots visible: 3,50 cents,1,0.658247061,loss,NA
629_TS,95,slots visible: 0,50 cents,1,0.782581692,win,NA
629_TS,96,slots visible: 1,50 cents,1,0.94091526,loss,NA
629_TS,97,slots visible: 0,50 cents,1,1.569297823,loss,NA
629_TS,98,slots visible: 0,50 cents,1,2.431898317,win,NA
629_TS,99,slots visible: 0,50 cents,1,0.568231003,loss,NA
629_TS,100,slots visible: 0,50 cents,1,0.830312339,win,NA
629_TS,101,slots visible: 5,50 cents,1,0.608834369,win,NA
629_TS,102,slots visible: 2,50 cents,0,1.359232007,loss,NA
629_TS,103,slots visible: 3,50 cents,1,0.783515672,win,NA
629_TS,104,slots visible: 3,50 cents,1,0.627966157,win,NA
629_TS,105,slots visible: 0,50 cents,1,2.328183685,loss,NA
629_TS,106,slots visible: 4,50 cents,1,0.440508824,loss,NA
629_TS,107,slots visible: 4,50 cents,1,3.056937612,win,NA
629_TS,108,slots visible: 2,50 cents,0,1.053670294,win,NA
629_TS,109,slots visible: 5,50 cents,1,2.22791613,win,NA
629_TS,110,slots visible: 5,50 cents,1,0.862232181,win,NA
629_TS,111,slots visible: 2,50 cents,0,3.298567858,loss,NA
629_TS,112,slots visible: 5,50 cents,1,0.623214147,win,NA
629_TS,113,slots visible: 1,50 cents,0,0.899550341,win,NA
629_TS,114,slots visible: 1,50 cents,1,1.48218986,loss,NA
629_TS,115,slots visible: 0,50 cents,1,0.690157812,win,NA
629_TS,116,slots visible: 0,50 cents,1,2.640571813,loss,NA
629_TS,117,slots visible: 2,50 cents,0,1.25886211,loss,NA
629_TS,118,slots visible: 4,50 cents,1,2.015390295,win,NA
629_TS,119,slots visible: 4,50 cents,1,2.2999071,loss,NA
629_TS,120,slots visible: 5,50 cents,1,3.415467301,loss,NA
629_TS,121,slots visible: 4,50 cents,1,2.96309502,win,NA
629_TS,122,slots visible: 5,50 cents,1,1.027607697,win,NA
629_TS,123,slots visible: 4,50 cents,1,3.847870877,win,NA
629_TS,124,slots visible: 1,50 cents,0,0.910364865,win,NA
629_TS,125,slots visible: 0,50 cents,1,1.216668778,win,NA
629_TS,126,slots visible: 3,50 cents,0,0.871091945,loss,NA
629_TS,127,slots visible: 5,50 cents,1,0.603527543,loss,NA
629_TS,128,slots visible: 0,50 cents,1,0.963681507,loss,NA
629_TS,129,slots visible: 1,50 cents,0,2.180242958,loss,NA
629_TS,130,slots visible: 1,50 cents,1,0.768552633,win,NA
629_TS,131,slots visible: 5,50 cents,1,2.095016152,win,NA
629_TS,132,slots visible: 0,50 cents,1,0.955336972,win,NA
629_TS,133,slots visible: 1,50 cents,0,1.013745786,win,NA
629_TS,134,slots visible: 4,50 cents,1,1.133998175,win,NA
629_TS,135,slots visible: 0,50 cents,1,0.634486132,loss,NA
629_TS,136,slots visible: 4,50 cents,1,1.156748294,win,NA
629_TS,137,slots visible: 3,50 cents,0,1.149123671,win,NA
629_TS,138,slots visible: 4,50 cents,1,1.8074546,win,NA
629_TS,139,slots visible: 3,50 cents,0,0.903953391,win,NA
629_TS,140,slots visible: 1,50 cents,1,0.500169201,win,NA
629_TS,141,slots visible: 3,50 cents,0,0.778894156,win,NA
629_TS,142,slots visible: 4,50 cents,1,1.726979217,loss,NA
629_TS,143,slots visible: 2,50 cents,1,3.341386091,loss,NA
629_TS,144,slots visible: 2,50 cents,0,1.057985371,win,NA
629_TS,145,slots visible: 3,50 cents,1,3.502246538,win,NA
629_TS,146,slots visible: 4,50 cents,1,1.266770299,win,NA
629_TS,147,slots visible: 4,50 cents,1,0.983093636,loss,NA
629_TS,148,slots visible: 5,50 cents,1,0.717475491,loss,NA
629_TS,149,slots visible: 2,50 cents,1,1.581765947,loss,NA
629_TS,150,slots visible: 3,50 cents,1,1.042321479,loss,NA
629_TS,151,slots visible: 0,50 cents,1,0.578699207,win,NA
629_TS,152,slots visible: 4,50 cents,1,0.895008,loss,NA
629_TS,153,slots visible: 2,50 cents,1,0.811464997,win,NA
629_TS,154,slots visible: 1,50 cents,0,1.143718902,loss,NA
629_TS,155,slots visible: 0,50 cents,1,0.580001208,loss,NA
629_TS,156,slots visible: 5,50 cents,1,0.634433055,win,NA
629_TS,157,slots visible: 3,50 cents,0,3.764650442,loss,NA
629_TS,158,slots visible: 3,50 cents,1,3.333281136,loss,NA
629_TS,159,slots visible: 5,50 cents,1,0.50558746,win,NA
629_TS,160,slots visible: 3,50 cents,1,3.238036254,win,NA
629_TS,161,slots visible: 3,50 cents,1,1.3746094,loss,NA
629_TS,162,slots visible: 3,50 cents,1,0.53280485,loss,NA
629_TS,163,slots visible: 2,50 cents,1,0.749250763,win,NA
629_TS,164,slots visible: 1,50 cents,1,1.519456995,win,NA
629_TS,165,slots visible: 3,50 cents,0,1.29601576,loss,NA
629_TS,166,slots visible: 5,50 cents,1,1.180274628,win,NA
629_TS,167,slots visible: 5,50 cents,1,0.416942315,loss,NA
629_TS,168,slots visible: 1,50 cents,1,0.854905494,win,NA
629_TS,169,slots visible: 2,50 cents,0,1.829549613,win,NA
629_TS,170,slots visible: 0,50 cents,1,2.11207031,loss,NA
629_TS,171,slots visible: 1,50 cents,0,3.122156712,win,NA
629_TS,172,slots visible: 4,50 cents,1,0.835090448,loss,NA
629_TS,173,slots visible: 3,50 cents,1,4.779081245,loss,NA
629_TS,174,slots visible: 5,50 cents,1,2.015621958,loss,NA
629_TS,175,slots visible: 3,50 cents,0,0.949821356,loss,NA
629_TS,176,slots visible: 3,50 cents,0,0.960399527,loss,NA
629_TS,177,slots visible: 1,50 cents,1,0.512488065,loss,NA
629_TS,178,slots visible: 3,50 cents,1,0.883160378,loss,NA
629_TS,179,slots visible: 4,50 cents,1,1.155167712,win,NA
629_TS,180,slots visible: 1,50 cents,0,2.64573583,loss,NA
630_MY,1,slots visible: 5,50 cents,1,1.644010386,loss,NA
630_MY,2,slots visible: 4,50 cents,1,1.144706252,loss,NA
630_MY,3,slots visible: 4,50 cents,1,0.417182482,win,NA
630_MY,4,slots visible: 1,50 cents,1,0.951625096,loss,NA
630_MY,5,slots visible: 0,50 cents,1,0.257897632,win,NA
630_MY,6,slots visible: 0,50 cents,0,1.422153251,loss,NA
630_MY,7,slots visible: 3,50 cents,1,1.330553092,loss,NA
630_MY,8,slots visible: 1,50 cents,1,0.583036571,loss,NA
630_MY,9,slots visible: 4,50 cents,1,0.001002599,loss,NA
630_MY,10,slots visible: 5,50 cents,1,0.001030457,loss,NA
630_MY,11,slots visible: 5,50 cents,1,0.095998811,win,NA
630_MY,12,slots visible: 0,50 cents,1,0.300363974,loss,NA
630_MY,13,slots visible: 2,50 cents,1,0.00100084,win,NA
630_MY,14,slots visible: 4,50 cents,1,0.182860449,loss,NA
630_MY,15,slots visible: 2,50 cents,1,0.291369611,win,NA
630_MY,16,slots visible: 5,50 cents,1,0.305505704,loss,NA
630_MY,17,slots visible: 4,50 cents,1,0.252246538,loss,NA
630_MY,18,slots visible: 2,50 cents,1,1.602327004,win,NA
630_MY,19,slots visible: 0,50 cents,1,1.298749375,win,NA
630_MY,20,slots visible: 1,50 cents,1,0.830901759,loss,NA
630_MY,21,slots visible: 5,50 cents,0,1.137447011,loss,NA
630_MY,22,slots visible: 3,50 cents,1,0.759589647,win,NA
630_MY,23,slots visible: 3,50 cents,1,0.928264151,loss,NA
630_MY,24,slots visible: 4,50 cents,0,1.342490739,loss,NA
630_MY,25,slots visible: 2,50 cents,1,0.930910967,loss,NA
630_MY,26,slots visible: 4,50 cents,1,0.273131042,win,NA
630_MY,27,slots visible: 3,50 cents,1,0.59569589,loss,NA
630_MY,28,slots visible: 2,50 cents,0,1.941745725,loss,NA
630_MY,29,slots visible: 3,50 cents,1,0.482356422,loss,NA
630_MY,30,slots visible: 2,50 cents,1,0.514450157,loss,NA
630_MY,31,slots visible: 1,50 cents,1,0.293114996,win,NA
630_MY,32,slots visible: 3,50 cents,1,0.275321571,win,NA
630_MY,33,slots visible: 5,50 cents,1,0.251694067,win,NA
630_MY,34,slots visible: 3,50 cents,1,0.290073475,win,NA
630_MY,35,slots visible: 3,50 cents,1,0.234523784,loss,NA
630_MY,36,slots visible: 5,50 cents,1,0.036827563,loss,NA
630_MY,37,slots visible: 5,50 cents,1,0.167105066,win,NA
630_MY,38,slots visible: 5,50 cents,1,0.365494221,win,NA
630_MY,39,slots visible: 2,50 cents,1,0.315774503,win,NA
630_MY,40,slots visible: 3,50 cents,1,0.316487671,win,NA
630_MY,41,slots visible: 5,50 cents,0,0.972715751,win,NA
630_MY,42,slots visible: 5,50 cents,0,1.090904879,win,NA
630_MY,43,slots visible: 4,50 cents,1,0.401226227,win,NA
630_MY,44,slots visible: 2,50 cents,1,0.305423303,loss,NA
630_MY,45,slots visible: 1,50 cents,1,0.261858178,win,NA
630_MY,46,slots visible: 3,50 cents,0,0.48204793,win,NA
630_MY,47,slots visible: 3,50 cents,0,0.2688752,win,NA
630_MY,48,slots visible: 5,50 cents,1,0.24888978,win,NA
630_MY,49,slots visible: 5,50 cents,1,0.313237361,loss,NA
630_MY,50,slots visible: 3,50 cents,0,0.419563325,loss,NA
630_MY,51,slots visible: 1,50 cents,1,0.265710517,win,NA
630_MY,52,slots visible: 3,50 cents,1,0.716266155,win,NA
630_MY,53,slots visible: 1,50 cents,0,0.310502279,win,NA
630_MY,54,slots visible: 4,50 cents,1,0.640988805,loss,NA
630_MY,55,slots visible: 1,50 cents,1,0.641277943,win,NA
630_MY,56,slots visible: 2,50 cents,1,0.529768607,win,NA
630_MY,57,slots visible: 4,50 cents,1,0.313757281,win,NA
630_MY,58,slots visible: 0,50 cents,0,0.298295141,loss,NA
630_MY,59,slots visible: 0,50 cents,0,0.84061926,win,NA
630_MY,60,slots visible: 5,50 cents,1,2.852673031,loss,NA
630_MY,61,slots visible: 2,50 cents,0,1.799817661,win,NA
630_MY,62,slots visible: 5,50 cents,1,0.224507762,win,NA
630_MY,63,slots visible: 0,50 cents,1,0.314489217,win,NA
630_MY,64,slots visible: 0,50 cents,0,0.266866483,loss,NA
630_MY,65,slots visible: 5,50 cents,1,1.735190033,win,NA
630_MY,66,slots visible: 3,50 cents,0,0.213402633,loss,NA
630_MY,67,slots visible: 1,50 cents,1,0.371951148,win,NA
630_MY,68,slots visible: 0,50 cents,1,0.264152515,loss,NA
630_MY,69,slots visible: 3,50 cents,1,0.244742145,win,NA
630_MY,70,slots visible: 4,50 cents,1,0.309036355,loss,NA
630_MY,71,slots visible: 5,50 cents,0,0.559332531,loss,NA
630_MY,72,slots visible: 3,50 cents,0,0.537616095,loss,NA
630_MY,73,slots visible: 4,50 cents,1,0.1738438,win,NA
630_MY,74,slots visible: 4,50 cents,1,0.212595627,win,NA
630_MY,75,slots visible: 5,50 cents,0,0.210771946,loss,NA
630_MY,76,slots visible: 1,50 cents,1,0.218969859,loss,NA
630_MY,77,slots visible: 0,50 cents,1,0.911254859,win,NA
630_MY,78,slots visible: 3,50 cents,0,0.257921385,win,NA
630_MY,79,slots visible: 1,50 cents,1,0.174033235,win,NA
630_MY,80,slots visible: 2,50 cents,1,0.324302315,win,NA
630_MY,81,slots visible: 2,50 cents,0,0.292742284,loss,NA
630_MY,82,slots visible: 0,50 cents,1,0.307103294,win,NA
630_MY,83,slots visible: 3,50 cents,1,0.45547333,win,NA
630_MY,84,slots visible: 0,50 cents,0,0.459742075,loss,NA
630_MY,85,slots visible: 4,50 cents,1,0.928147734,loss,NA
630_MY,86,slots visible: 5,50 cents,1,0.254510084,win,NA
630_MY,87,slots visible: 0,50 cents,0,1.284673984,win,NA
630_MY,88,slots visible: 1,50 cents,1,0.58109442,win,NA
630_MY,89,slots visible: 0,50 cents,0,0.225579273,loss,NA
630_MY,90,slots visible: 4,50 cents,1,0.229720164,loss,NA
630_MY,91,slots visible: 3,50 cents,1,0.096185313,loss,NA
630_MY,92,slots visible: 0,50 cents,0,0.23055972,loss,NA
630_MY,93,slots visible: 2,50 cents,0,0.43288039,loss,NA
630_MY,94,slots visible: 2,50 cents,1,0.291297766,win,NA
630_MY,95,slots visible: 1,50 cents,1,0.187591052,win,NA
630_MY,96,slots visible: 0,50 cents,0,0.253943831,win,NA
630_MY,97,slots visible: 5,50 cents,0,0.9002031,loss,NA
630_MY,98,slots visible: 3,50 cents,1,0.04857167,win,NA
630_MY,99,slots visible: 2,50 cents,1,0.207004941,loss,NA
630_MY,100,slots visible: 2,50 cents,0,0.199278562,loss,NA
630_MY,101,slots visible: 4,50 cents,1,0.009559443,win,NA
630_MY,102,slots visible: 1,50 cents,1,0.319909822,loss,NA
630_MY,103,slots visible: 5,50 cents,0,0.176284758,win,NA
630_MY,104,slots visible: 4,50 cents,1,0.43839102,win,NA
630_MY,105,slots visible: 2,50 cents,1,0.360977979,loss,NA
630_MY,106,slots visible: 1,50 cents,0,0.209310127,win,NA
630_MY,107,slots visible: 4,50 cents,1,0.441682091,loss,NA
630_MY,108,slots visible: 2,50 cents,0,0.395792133,win,NA
630_MY,109,slots visible: 2,50 cents,0,0.51840865,win,NA
630_MY,110,slots visible: 5,50 cents,1,1.310540987,win,NA
630_MY,111,slots visible: 0,50 cents,1,0.337024095,win,NA
630_MY,112,slots visible: 1,50 cents,0,0.221331055,loss,NA
630_MY,113,slots visible: 1,50 cents,1,0.36985827,loss,NA
630_MY,114,slots visible: 1,50 cents,1,0.032006348,win,NA
630_MY,115,slots visible: 3,50 cents,0,0.444406616,win,NA
630_MY,116,slots visible: 0,50 cents,1,0.99058366,win,NA
630_MY,117,slots visible: 2,50 cents,1,0.993331644,loss,NA
630_MY,118,slots visible: 2,50 cents,0,0.265421086,win,NA
630_MY,119,slots visible: 0,50 cents,0,0.102161908,loss,NA
630_MY,120,slots visible: 2,50 cents,0,1.256926703,loss,NA
630_MY,121,slots visible: 2,50 cents,1,0.404632836,loss,NA
630_MY,122,slots visible: 4,50 cents,0,0.29346161,loss,NA
630_MY,123,slots visible: 1,50 cents,1,0.451404284,loss,NA
630_MY,124,slots visible: 1,50 cents,0,0.27386767,loss,NA
630_MY,125,slots visible: 0,50 cents,0,0.884008145,win,NA
630_MY,126,slots visible: 0,50 cents,1,0.6125395,win,NA
630_MY,127,slots visible: 0,50 cents,1,0.188861089,loss,NA
630_MY,128,slots visible: 5,50 cents,1,0.70311272,win,NA
630_MY,129,slots visible: 1,50 cents,1,0.227466881,loss,NA
630_MY,130,slots visible: 0,50 cents,0,0.16761179,loss,NA
630_MY,131,slots visible: 2,50 cents,0,0.568340383,loss,NA
630_MY,132,slots visible: 2,50 cents,1,0.296455625,win,NA
630_MY,133,slots visible: 1,50 cents,0,0.300955739,loss,NA
630_MY,134,slots visible: 2,50 cents,1,0.331280629,loss,NA
630_MY,135,slots visible: 3,50 cents,1,0.161618774,win,NA
630_MY,136,slots visible: 5,50 cents,1,0.689837883,loss,NA
630_MY,137,slots visible: 2,50 cents,0,0.224201615,win,NA
630_MY,138,slots visible: 1,50 cents,0,0.292639062,loss,NA
630_MY,139,slots visible: 0,50 cents,1,0.371012183,loss,NA
630_MY,140,slots visible: 1,50 cents,0,1.089243948,win,NA
630_MY,141,slots visible: 3,50 cents,0,0.927633385,win,NA
630_MY,142,slots visible: 4,50 cents,1,0.205939587,loss,NA
630_MY,143,slots visible: 4,50 cents,1,0.294337821,win,NA
630_MY,144,slots visible: 5,50 cents,1,0.228692639,win,NA
630_MY,145,slots visible: 4,50 cents,1,0.079241414,win,NA
630_MY,146,slots visible: 0,50 cents,1,0.271291233,loss,NA
630_MY,147,slots visible: 4,50 cents,1,0.187710109,win,NA
630_MY,148,slots visible: 5,50 cents,1,0.296162675,loss,NA
630_MY,149,slots visible: 3,50 cents,0,0.18267248,loss,NA
630_MY,150,slots visible: 4,50 cents,1,0.194750591,win,NA
630_MY,151,slots visible: 4,50 cents,1,0.117078615,loss,NA
630_MY,152,slots visible: 1,50 cents,0,0.253351772,win,NA
630_MY,153,slots visible: 3,50 cents,0,0.435703151,loss,NA
630_MY,154,slots visible: 3,50 cents,1,0.261978701,loss,NA
630_MY,155,slots visible: 3,50 cents,0,0.146399147,loss,NA
630_MY,156,slots visible: 1,50 cents,0,0.246730922,win,NA
630_MY,157,slots visible: 1,50 cents,1,0.199045434,loss,NA
630_MY,158,slots visible: 0,50 cents,1,0.143490758,win,NA
630_MY,159,slots visible: 1,50 cents,1,0.243870919,win,NA
630_MY,160,slots visible: 3,50 cents,0,0.452164078,loss,NA
630_MY,161,slots visible: 2,50 cents,1,0.130265772,loss,NA
630_MY,162,slots visible: 0,50 cents,1,0.426746617,loss,NA
630_MY,163,slots visible: 5,50 cents,0,1.015100571,loss,NA
630_MY,164,slots visible: 5,50 cents,1,0.975564318,win,NA
630_MY,165,slots visible: 0,50 cents,1,0.181834977,win,NA
630_MY,166,slots visible: 5,50 cents,0,0.14631264,loss,NA
630_MY,167,slots visible: 2,50 cents,1,0.454652835,win,NA
630_MY,168,slots visible: 2,50 cents,1,0.580560717,win,NA
630_MY,169,slots visible: 4,50 cents,1,0.305239732,win,NA
630_MY,170,slots visible: 4,50 cents,1,0.085692477,win,NA
630_MY,171,slots visible: 4,50 cents,1,0.431840842,loss,NA
630_MY,172,slots visible: 1,50 cents,0,0.210014498,loss,NA
630_MY,173,slots visible: 0,50 cents,0,0.128522147,win,NA
630_MY,174,slots visible: 0,50 cents,0,0.334879019,loss,NA
630_MY,175,slots visible: 1,50 cents,1,0.267328341,loss,NA
630_MY,176,slots visible: 3,50 cents,0,0.237617209,win,NA
630_MY,177,slots visible: 3,50 cents,1,0.269815632,loss,NA
630_MY,178,slots visible: 5,50 cents,0,0.192238081,loss,NA
630_MY,179,slots visible: 4,50 cents,0,0.306649647,win,NA
630_MY,180,slots visible: 4,50 cents,1,0.230942402,loss,NA
631_PR,1,slots visible: 0,50 cents,0,1.416850312,loss,NA
631_PR,2,slots visible: 1,50 cents,1,0.623458512,win,NA
631_PR,3,slots visible: 0,50 cents,1,0.556740175,win,NA
631_PR,4,slots visible: 5,50 cents,1,0.615474574,win,NA
631_PR,5,slots visible: 1,50 cents,1,1.249379416,loss,NA
631_PR,6,slots visible: 3,50 cents,1,0.368073401,loss,NA
631_PR,7,slots visible: 4,50 cents,1,0.605993026,loss,NA
631_PR,8,slots visible: 5,50 cents,1,0.412304694,loss,NA
631_PR,9,slots visible: 0,50 cents,0,0.360704695,win,NA
631_PR,10,slots visible: 0,50 cents,0,0.561103101,win,NA
631_PR,11,slots visible: 4,50 cents,1,0.545505304,win,NA
631_PR,12,slots visible: 5,50 cents,1,0.475921946,win,NA
631_PR,13,slots visible: 0,50 cents,0,0.726131251,win,NA
631_PR,14,slots visible: 5,50 cents,1,0.460495405,loss,NA
631_PR,15,slots visible: 4,50 cents,1,0.720872456,win,NA
631_PR,16,slots visible: 2,50 cents,1,0.737121554,loss,NA
631_PR,17,slots visible: 5,50 cents,1,0.365529192,win,NA
631_PR,18,slots visible: 3,50 cents,1,0.652048021,win,NA
631_PR,19,slots visible: 5,50 cents,1,0.348111505,loss,NA
631_PR,20,slots visible: 5,50 cents,1,0.280385279,win,NA
631_PR,21,slots visible: 2,50 cents,1,0.448848816,win,NA
631_PR,22,slots visible: 0,50 cents,0,0.937065427,loss,NA
631_PR,23,slots visible: 1,50 cents,0,1.015903067,win,NA
631_PR,24,slots visible: 4,50 cents,1,0.885982129,loss,NA
631_PR,25,slots visible: 5,50 cents,1,0.332379695,loss,NA
631_PR,26,slots visible: 0,50 cents,0,0.632746224,loss,NA
631_PR,27,slots visible: 5,50 cents,1,0.75510462,loss,NA
631_PR,28,slots visible: 4,50 cents,1,0.587291505,loss,NA
631_PR,29,slots visible: 0,50 cents,0,0.663639187,loss,NA
631_PR,30,slots visible: 4,50 cents,1,0.675727699,loss,NA
631_PR,31,slots visible: 2,50 cents,0,0.64648425,loss,NA
631_PR,32,slots visible: 5,50 cents,1,0.710616443,win,NA
631_PR,33,slots visible: 4,50 cents,1,0.305010092,win,NA
631_PR,34,slots visible: 1,50 cents,0,0.891519801,loss,NA
631_PR,35,slots visible: 3,50 cents,1,0.684204291,loss,NA
631_PR,36,slots visible: 1,50 cents,0,0.868443625,loss,NA
631_PR,37,slots visible: 3,50 cents,0,0.958880935,win,NA
631_PR,38,slots visible: 4,50 cents,1,1.727087529,win,NA
631_PR,39,slots visible: 5,50 cents,1,0.621337164,win,NA
631_PR,40,slots visible: 3,50 cents,0,0.801603004,win,NA
631_PR,41,slots visible: 1,50 cents,0,0.625944071,win,NA
631_PR,42,slots visible: 2,50 cents,0,0.710500904,win,NA
631_PR,43,slots visible: 3,50 cents,0,0.699034661,loss,NA
631_PR,44,slots visible: 2,50 cents,0,0.703293191,win,NA
631_PR,45,slots visible: 0,50 cents,0,0.579592604,loss,NA
631_PR,46,slots visible: 5,50 cents,1,0.989425227,win,NA
631_PR,47,slots visible: 1,50 cents,1,1.154240481,win,NA
631_PR,48,slots visible: 1,50 cents,0,1.620272385,loss,NA
631_PR,49,slots visible: 5,50 cents,1,0.721144882,win,NA
631_PR,50,slots visible: 5,50 cents,1,0.433211431,loss,NA
631_PR,51,slots visible: 1,50 cents,1,1.075441256,win,NA
631_PR,52,slots visible: 4,50 cents,1,0.645856995,win,NA
631_PR,53,slots visible: 0,50 cents,1,0.710549289,loss,NA
631_PR,54,slots visible: 1,50 cents,0,0.384588474,loss,NA
631_PR,55,slots visible: 4,50 cents,0,0.5012658,loss,NA
631_PR,56,slots visible: 1,50 cents,0,0.641096426,loss,NA
631_PR,57,slots visible: 3,50 cents,1,0.683601962,loss,NA
631_PR,58,slots visible: 5,50 cents,1,0.627408253,loss,NA
631_PR,59,slots visible: 5,50 cents,1,0.718242326,win,NA
631_PR,60,slots visible: 5,50 cents,1,1.389118257,win,NA
631_PR,61,slots visible: 1,50 cents,1,0.401443126,win,NA
631_PR,62,slots visible: 1,50 cents,1,0.353810463,win,NA
631_PR,63,slots visible: 2,50 cents,1,0.234232047,win,NA
631_PR,64,slots visible: 4,50 cents,1,0.314523311,win,NA
631_PR,65,slots visible: 3,50 cents,1,0.34079881,win,NA
631_PR,66,slots visible: 4,50 cents,1,0.273084607,loss,NA
631_PR,67,slots visible: 3,50 cents,1,0.233281341,win,NA
631_PR,68,slots visible: 0,50 cents,1,0.547729581,win,NA
631_PR,69,slots visible: 2,50 cents,1,0.824234619,win,NA
631_PR,70,slots visible: 1,50 cents,1,0.58048554,loss,NA
631_PR,71,slots visible: 1,50 cents,0,0.224873075,win,NA
631_PR,72,slots visible: 3,50 cents,0,0.341114344,loss,NA
631_PR,73,slots visible: 5,50 cents,1,0.993485523,win,NA
631_PR,74,slots visible: 2,50 cents,1,0.393996124,win,NA
631_PR,75,slots visible: 3,50 cents,1,0.276034083,win,NA
631_PR,76,slots visible: 0,50 cents,1,0.230574673,win,NA
631_PR,77,slots visible: 0,50 cents,1,0.45885205,loss,NA
631_PR,78,slots visible: 1,50 cents,0,0.185102066,loss,NA
631_PR,79,slots visible: 2,50 cents,0,0.463559834,loss,NA
631_PR,80,slots visible: 3,50 cents,1,0.259658889,win,NA
631_PR,81,slots visible: 1,50 cents,1,0.256329365,loss,NA
631_PR,82,slots visible: 0,50 cents,0,0.476829838,win,NA
631_PR,83,slots visible: 4,50 cents,0,0.406959391,win,NA
631_PR,84,slots visible: 4,50 cents,1,0.519297838,win,NA
631_PR,85,slots visible: 0,50 cents,1,0.431643733,loss,NA
631_PR,86,slots visible: 4,50 cents,1,0.817951513,win,NA
631_PR,87,slots visible: 3,50 cents,1,0.622237725,loss,NA
631_PR,88,slots visible: 4,50 cents,1,0.610701103,win,NA
631_PR,89,slots visible: 4,50 cents,1,0.31511567,win,NA
631_PR,90,slots visible: 3,50 cents,1,0.427375233,loss,NA
631_PR,91,slots visible: 5,50 cents,0,0.237678576,win,NA
631_PR,92,slots visible: 1,50 cents,0,0.519979637,loss,NA
631_PR,93,slots visible: 1,50 cents,0,0.528480275,win,NA
631_PR,94,slots visible: 2,50 cents,1,0.446922771,loss,NA
631_PR,95,slots visible: 3,50 cents,1,0.429250546,win,NA
631_PR,96,slots visible: 2,50 cents,1,0.383340708,loss,NA
631_PR,97,slots visible: 2,50 cents,1,0.435565616,win,NA
631_PR,98,slots visible: 1,50 cents,1,0.454070368,win,NA
631_PR,99,slots visible: 5,50 cents,1,0.522473114,loss,NA
631_PR,100,slots visible: 3,50 cents,0,0.360810264,loss,NA
631_PR,101,slots visible: 5,50 cents,0,0.497260928,loss,NA
631_PR,102,slots visible: 2,50 cents,0,0.349440793,loss,NA
631_PR,103,slots visible: 2,50 cents,1,0.303734175,loss,NA
631_PR,104,slots visible: 5,50 cents,0,0.001052169,loss,NA
631_PR,105,slots visible: 0,50 cents,1,0.506443952,win,NA
631_PR,106,slots visible: 1,50 cents,1,0.508983762,win,NA
631_PR,107,slots visible: 2,50 cents,1,0.366733556,loss,NA
631_PR,108,slots visible: 3,50 cents,0,0.285447599,win,NA
631_PR,109,slots visible: 3,50 cents,0,0.389732022,win,NA
631_PR,110,slots visible: 2,50 cents,1,0.608536355,win,NA
631_PR,111,slots visible: 2,50 cents,1,0.664662032,loss,NA
631_PR,112,slots visible: 2,50 cents,0,0.346771954,win,NA
631_PR,113,slots visible: 5,50 cents,1,0.455119605,win,NA
631_PR,114,slots visible: 0,50 cents,1,0.57156556,loss,NA
631_PR,115,slots visible: 0,50 cents,0,0.36982819,win,NA
631_PR,116,slots visible: 1,50 cents,1,0.666574001,loss,NA
631_PR,117,slots visible: 1,50 cents,0,0.316575452,loss,NA
631_PR,118,slots visible: 0,50 cents,0,0.294966683,win,NA
631_PR,119,slots visible: 4,50 cents,1,0.325309221,loss,NA
631_PR,120,slots visible: 2,50 cents,1,1.034116332,loss,NA
631_PR,121,slots visible: 4,50 cents,1,0.236147828,loss,NA
631_PR,122,slots visible: 1,50 cents,1,0.284480471,loss,NA
631_PR,123,slots visible: 2,50 cents,0,0.260638627,loss,NA
631_PR,124,slots visible: 3,50 cents,0,0.257333442,win,NA
631_PR,125,slots visible: 4,50 cents,1,0.253187519,loss,NA
631_PR,126,slots visible: 1,50 cents,1,0.675787228,loss,NA
631_PR,127,slots visible: 3,50 cents,0,0.262071724,win,NA
631_PR,128,slots visible: 5,50 cents,0,0.370632566,loss,NA
631_PR,129,slots visible: 4,50 cents,0,0.288873308,loss,NA
631_PR,130,slots visible: 3,50 cents,1,0.479289885,win,NA
631_PR,131,slots visible: 5,50 cents,1,0.463699126,win,NA
631_PR,132,slots visible: 1,50 cents,1,0.46803654,win,NA
631_PR,133,slots visible: 2,50 cents,1,0.366396029,win,NA
631_PR,134,slots visible: 3,50 cents,1,0.348816764,loss,NA
631_PR,135,slots visible: 0,50 cents,0,0.303054722,loss,NA
631_PR,136,slots visible: 2,50 cents,0,0.451509444,loss,NA
631_PR,137,slots visible: 0,50 cents,0,0.40175602,win,NA
631_PR,138,slots visible: 3,50 cents,1,0.481877495,loss,NA
631_PR,139,slots visible: 2,50 cents,0,0.354445929,win,NA
631_PR,140,slots visible: 1,50 cents,0,0.260619273,win,NA
631_PR,141,slots visible: 2,50 cents,0,0.593445582,loss,NA
631_PR,142,slots visible: 1,50 cents,1,0.387246169,win,NA
631_PR,143,slots visible: 3,50 cents,1,0.525789736,loss,NA
631_PR,144,slots visible: 0,50 cents,0,0.518062389,loss,NA
631_PR,145,slots visible: 4,50 cents,1,0.462506785,loss,NA
631_PR,146,slots visible: 2,50 cents,0,0.227191778,win,NA
631_PR,147,slots visible: 4,50 cents,0,0.551477568,win,NA
631_PR,148,slots visible: 1,50 cents,0,0.481629701,win,NA
631_PR,149,slots visible: 3,50 cents,1,0.61985099,win,NA
631_PR,150,slots visible: 4,50 cents,1,0.607860128,win,NA
631_PR,151,slots visible: 5,50 cents,1,0.510602484,loss,NA
631_PR,152,slots visible: 3,50 cents,0,0.240742126,loss,NA
631_PR,153,slots visible: 0,50 cents,0,0.28928444,win,NA
631_PR,154,slots visible: 2,50 cents,0,0.47974735,win,NA
631_PR,155,slots visible: 3,50 cents,1,0.592112482,loss,NA
631_PR,156,slots visible: 3,50 cents,0,0.354255612,loss,NA
631_PR,157,slots visible: 5,50 cents,0,0.388457278,win,NA
631_PR,158,slots visible: 4,50 cents,1,0.43122527,win,NA
631_PR,159,slots visible: 3,50 cents,1,0.481223848,loss,NA
631_PR,160,slots visible: 5,50 cents,0,0.369855755,loss,NA
631_PR,161,slots visible: 1,50 cents,0,0.001012288,loss,NA
631_PR,162,slots visible: 4,50 cents,0,0.394319868,loss,NA
631_PR,163,slots visible: 4,50 cents,1,0.421046967,loss,NA
631_PR,164,slots visible: 4,50 cents,1,0.624916535,win,NA
631_PR,165,slots visible: 0,50 cents,1,0.363330134,loss,NA
631_PR,166,slots visible: 0,50 cents,1,0.569618694,win,NA
631_PR,167,slots visible: 2,50 cents,1,0.394120754,win,NA
631_PR,168,slots visible: 4,50 cents,1,0.068339112,loss,NA
631_PR,169,slots visible: 0,50 cents,0,0.270865902,win,NA
631_PR,170,slots visible: 2,50 cents,0,0.378785999,loss,NA
631_PR,171,slots visible: 3,50 cents,1,0.559291422,win,NA
631_PR,172,slots visible: 0,50 cents,1,0.351580615,loss,NA
631_PR,173,slots visible: 2,50 cents,0,0.801908861,win,NA
631_PR,174,slots visible: 0,50 cents,0,0.360524349,loss,NA
631_PR,175,slots visible: 5,50 cents,0,0.250618091,loss,NA
631_PR,176,slots visible: 0,50 cents,1,0.44893503,loss,NA
631_PR,177,slots visible: 0,50 cents,1,0.511252612,win,NA
631_PR,178,slots visible: 4,50 cents,1,0.347785415,loss,NA
631_PR,179,slots visible: 5,50 cents,1,0.360096795,loss,NA
631_PR,180,slots visible: 2,50 cents,0,0.896464235,loss,NA
632_JL,1,slots visible: 2,50 cents,99,5,loss,NA
632_JL,2,slots visible: 4,50 cents,1,0.924379277,win,NA
632_JL,3,slots visible: 4,50 cents,1,1.120527363,win,NA
632_JL,4,slots visible: 4,50 cents,1,2.023022219,loss,NA
632_JL,5,slots visible: 3,50 cents,1,1.363345383,win,NA
632_JL,6,slots visible: 1,50 cents,0,0.441609139,loss,NA
632_JL,7,slots visible: 4,50 cents,1,1.954332677,loss,NA
632_JL,8,slots visible: 1,50 cents,1,0.362183246,win,NA
632_JL,9,slots visible: 3,50 cents,1,1.369041995,loss,NA
632_JL,10,slots visible: 2,50 cents,1,1.135115218,loss,NA
632_JL,11,slots visible: 3,50 cents,1,1.093548952,win,NA
632_JL,12,slots visible: 3,50 cents,1,2.154104707,loss,NA
632_JL,13,slots visible: 3,50 cents,1,2.324249428,loss,NA
632_JL,14,slots visible: 0,50 cents,1,2.122872458,loss,NA
632_JL,15,slots visible: 2,50 cents,1,1.203322076,win,NA
632_JL,16,slots visible: 2,50 cents,1,2.259714606,win,NA
632_JL,17,slots visible: 3,50 cents,0,2.415862657,loss,NA
632_JL,18,slots visible: 3,50 cents,1,1.820308631,loss,NA
632_JL,19,slots visible: 5,50 cents,1,1.105108447,loss,NA
632_JL,20,slots visible: 1,50 cents,1,1.04563096,loss,NA
632_JL,21,slots visible: 1,50 cents,1,1.189983745,win,NA
632_JL,22,slots visible: 2,50 cents,1,2.223888353,win,NA
632_JL,23,slots visible: 0,50 cents,0,2.036575206,loss,NA
632_JL,24,slots visible: 5,50 cents,1,2.124654519,win,NA
632_JL,25,slots visible: 5,50 cents,1,2.427240339,loss,NA
632_JL,26,slots visible: 4,50 cents,1,2.669805874,loss,NA
632_JL,27,slots visible: 5,50 cents,1,3.2962643,win,NA
632_JL,28,slots visible: 1,50 cents,0,0.934370489,loss,NA
632_JL,29,slots visible: 2,50 cents,1,2.580898432,win,NA
632_JL,30,slots visible: 2,50 cents,0,1.761122338,loss,NA
632_JL,31,slots visible: 3,50 cents,1,1.377565506,loss,NA
632_JL,32,slots visible: 2,50 cents,0,2.750081303,loss,NA
632_JL,33,slots visible: 3,50 cents,1,1.552063768,win,NA
632_JL,34,slots visible: 3,50 cents,1,2.034827455,win,NA
632_JL,35,slots visible: 4,50 cents,0,1.077378737,win,NA
632_JL,36,slots visible: 4,50 cents,1,1.35141493,win,NA
632_JL,37,slots visible: 2,50 cents,0,1.297954868,win,NA
632_JL,38,slots visible: 1,50 cents,1,1.512295985,win,NA
632_JL,39,slots visible: 1,50 cents,0,3.011097045,loss,NA
632_JL,40,slots visible: 4,50 cents,1,1.121114737,win,NA
632_JL,41,slots visible: 4,50 cents,1,3.297735226,loss,NA
632_JL,42,slots visible: 4,50 cents,0,3.310241322,win,NA
632_JL,43,slots visible: 2,50 cents,1,1.216605569,win,NA
632_JL,44,slots visible: 1,50 cents,0,3.335037684,loss,NA
632_JL,45,slots visible: 1,50 cents,1,2.283629469,win,NA
632_JL,46,slots visible: 3,50 cents,1,1.357795394,win,NA
632_JL,47,slots visible: 2,50 cents,0,1.118048841,loss,NA
632_JL,48,slots visible: 5,50 cents,1,1.064795224,win,NA
632_JL,49,slots visible: 1,50 cents,0,2.276849603,loss,NA
632_JL,50,slots visible: 0,50 cents,1,1.831359636,loss,NA
632_JL,51,slots visible: 3,50 cents,1,3.60199314,loss,NA
632_JL,52,slots visible: 0,50 cents,1,2.066563209,loss,NA
632_JL,53,slots visible: 0,50 cents,1,1.942870833,loss,NA
632_JL,54,slots visible: 3,50 cents,1,2.163190666,win,NA
632_JL,55,slots visible: 1,50 cents,1,3.395789621,loss,NA
632_JL,56,slots visible: 0,50 cents,1,1.525992076,win,NA
632_JL,57,slots visible: 0,50 cents,0,1.580313405,loss,NA
632_JL,58,slots visible: 3,50 cents,1,2.250968814,loss,NA
632_JL,59,slots visible: 0,50 cents,1,2.145137514,loss,NA
632_JL,60,slots visible: 2,50 cents,1,3.541663478,loss,NA
632_JL,61,slots visible: 5,50 cents,1,1.688452264,loss,NA
632_JL,62,slots visible: 0,50 cents,1,2.110737906,win,NA
632_JL,63,slots visible: 0,50 cents,1,1.478959983,loss,NA
632_JL,64,slots visible: 0,50 cents,1,2.063718129,loss,NA
632_JL,65,slots visible: 3,50 cents,1,2.515823743,win,NA
632_JL,66,slots visible: 0,50 cents,1,3.372612568,win,NA
632_JL,67,slots visible: 4,50 cents,1,2.962577897,win,NA
632_JL,68,slots visible: 4,50 cents,0,0.867255975,win,NA
632_JL,69,slots visible: 1,50 cents,0,1.021760378,win,NA
632_JL,70,slots visible: 5,50 cents,1,1.068287794,win,NA
632_JL,71,slots visible: 0,50 cents,0,2.312226602,win,NA
632_JL,72,slots visible: 5,50 cents,1,0.514857495,loss,NA
632_JL,73,slots visible: 3,50 cents,1,1.627320865,loss,NA
632_JL,74,slots visible: 4,50 cents,1,0.829359399,loss,NA
632_JL,75,slots visible: 1,50 cents,1,0.880211325,loss,NA
632_JL,76,slots visible: 1,50 cents,1,0.656217111,win,NA
632_JL,77,slots visible: 5,50 cents,1,0.348578061,win,NA
632_JL,78,slots visible: 5,50 cents,1,0.495103805,loss,NA
632_JL,79,slots visible: 5,50 cents,1,1.205337268,win,NA
632_JL,80,slots visible: 4,50 cents,1,2.60398018,win,NA
